t,press,temp,fm,ax,ay,az,avx,avy,avz,q0,q1,q2,q3,ax,ay,az,vx,xy,vz,x,y,z
0.010000,1020.101563,56.391666,0, 0.033500,-10.035498,-0.076570, 0.028764,-0.007724,0.015980, 0.000000,1.000000,0.000000,0.000000, 0.033500,0.229498,0.076570, 0.000000,0.000000,0.000000, 0.000000,0.000000,0.000000
0.020001,1020.101563,56.391666,0, -0.057428,-10.001998,-0.071785, 0.025568,-0.003196,0.012518, 0.000000,1.000000,0.000000,0.000000, -0.057428,0.195998,0.071785, 0.000000,0.000000,0.000000, 0.000000,0.000000,0.000000
0.030001,1020.101563,56.391666,0, 0.009571,-9.997213,-0.167498, 0.021041,-0.009322,0.011719, 0.000000,1.000000,0.000000,0.000000, 0.009571,0.191214,0.167498, 0.000000,0.000000,0.000000, 0.000000,0.000000,0.000000
0.040002,1020.078125,56.400002,0, 0.043071,-10.030712,-0.181855, 0.026367,0.000266,0.016513, 0.000000,1.000000,0.000000,0.000000, 0.043071,0.224712,0.181855, 0.000000,0.000000,0.000000, 0.000000,0.000000,0.000000
0.050003,1020.078125,56.400002,0, -0.071785,-9.973285,-0.210568, 0.026101,-0.001332,0.017578, 0.000000,1.000000,0.000000,0.000000, -0.071785,0.167285,0.210568, 0.000000,0.000000,0.000000, 0.000000,0.000000,0.000000
0.060003,1020.078125,56.400002,0, -0.043071,-9.987642,-0.157926, 0.026367,-0.006126,0.018910, 0.000000,1.000000,0.000000,0.000000, -0.043071,0.181643,0.157926, 0.000000,0.000000,0.000000, 0.000000,0.000000,0.000000
0.070003,1020.078125,56.400002,0, -0.129212,-9.982856,-0.172283, 0.026367,0.003196,0.013051, 0.000000,1.000000,0.000000,0.000000, -0.129212,0.176856,0.172283, 0.000000,0.000000,0.000000, 0.000000,0.000000,0.000000
0.080005,1020.117920,56.393749,0, -0.177069,-10.006784,-0.100499, 0.029297,0.005593,0.016513, 0.000000,1.000000,0.000000,0.000000, -0.177069,0.200785,0.100499, 0.000000,0.000000,0.000000, 0.000000,0.000000,0.000000
0.090007,1020.117920,56.393749,0, -0.167498,-9.992427,-0.023928, 0.022372,-0.000266,0.010387, 0.000000,1.000000,0.000000,0.000000, -0.167498,0.186427,0.023928, 0.000000,0.000000,0.000000, 0.000000,0.000000,0.000000
0.100009,1020.117920,56.393749,0, -0.138784,-10.011570,-0.177069, 0.023970,-0.004261,0.016247, 0.000000,1.000000,0.000000,0.000000, -0.138784,0.205570,0.177069, 0.000000,0.000000,0.000000, 0.000000,0.000000,0.000000
0.110009,1020.117920,56.393749,0, -0.153141,-9.987642,-0.110070, 0.026101,0.003995,0.008256, 0.000000,1.000000,0.000000,0.000000, -0.153141,0.181643,0.110070, 0.000000,0.000000,0.000000, 0.000000,0.000000,0.000000
0.120011,1020.117920,56.393749,0, -0.234497,-9.992427,-0.052642, 0.028764,0.000000,0.010121, 0.000000,1.000000,0.000000,0.000000, -0.234497,0.186427,0.052642, 0.000000,0.000000,0.000000, 0.000000,0.000000,0.000000
0.130011,1020.131592,56.397919,0, -0.114855,-10.011570,-0.172283, 0.025036,-0.002930,0.005593, 0.000000,1.000000,0.000000,0.000000, -0.114855,0.205570,0.172283, 0.000000,0.000000,0.000000, 0.000000,0.000000,0.000000
0.140013,1020.131592,56.397919,0, -0.119641,-10.006784,-0.153141, 0.018910,0.000000,0.005859, 0.000000,1.000000,0.000000,0.000000, -0.119641,0.200785,0.153141, 0.000000,0.000000,0.000000, 0.000000,0.000000,0.000000
0.150013,1020.131592,56.397919,0, -0.129212,-10.011570,-0.177069, 0.023438,0.004528,0.005593, 0.000000,1.000000,0.000000,0.000000, -0.129212,0.205570,0.177069, 0.000000,0.000000,0.000000, 0.000000,0.000000,0.000000
0.160015,1020.131592,56.397919,0, -0.062213,-9.992427,-0.239282, 0.021041,-0.001065,0.007990, 0.000000,1.000000,0.000000,0.000000, -0.062213,0.186427,0.239282, 0.000000,0.000000,0.000000, 0.000000,0.000000,0.000000
0.170015,1020.112305,56.402084,0, -0.047856,-10.001998,-0.248854, 0.026367,-0.001332,0.011186, 0.000000,1.000000,0.000000,0.000000, -0.047856,0.195998,0.248854, 0.000000,0.000000,0.000000, 0.000000,0.000000,0.000000
0.180015,1020.112305,56.402084,0, -0.047856,-10.021141,-0.215354, 0.025302,-0.001864,0.010121, 0.000000,1.000000,0.000000,0.000000, -0.047856,0.215141,0.215354, 0.000000,0.000000,0.000000, 0.000000,0.000000,0.000000
0.190015,1020.112305,56.402084,0, -0.028714,-9.973285,-0.253639, 0.024237,-0.005327,0.005593, 0.000000,1.000000,0.000000,0.000000, -0.028714,0.167285,0.253639, 0.000000,0.000000,0.000000, 0.000000,0.000000,0.000000
0.200016,1020.112305,56.402084,0, 0.023928,-10.011570,-0.277567, 0.025302,-0.002930,0.007457, 0.000000,1.000000,0.000000,0.000000, 0.023928,0.205570,0.277567, 0.000000,0.000000,0.000000, 0.000000,0.000000,0.000000
0.210016,1020.095215,56.400002,0, -0.009571,-9.982856,-0.258425, 0.029563,-0.001332,0.004261, 0.000000,1.000000,0.000000,0.000000, -0.009571,0.176856,0.258425, 0.000000,0.000000,0.000000, 0.000000,0.000000,0.000000
0.220018,1020.095215,56.400002,0, -0.019143,-10.011570,-0.282353, 0.025835,0.001332,0.011453, 0.000000,1.000000,0.000000,0.000000, -0.019143,0.205570,0.282353, 0.000000,0.000000,0.000000, 0.000000,0.000000,0.000000
0.230018,1020.095215,56.400002,0, -0.047856,-9.987642,-0.248854, 0.033026,-0.005859,0.006126, 0.000000,1.000000,0.000000,0.000000, -0.047856,0.181643,0.248854, 0.000000,0.000000,0.000000, 0.000000,0.000000,0.000000
0.240018,1020.095215,56.400002,0, 0.023928,-10.001998,-0.210568, 0.029563,-0.000799,0.009322, 0.000000,1.000000,0.000000,0.000000, 0.023928,0.195998,0.210568, 0.000000,0.000000,0.000000, 0.000000,0.000000,0.000000
0.250018,1020.051758,56.397919,0, -0.043071,-9.992427,-0.181855, 0.030629,0.001598,0.007990, 0.000000,1.000000,0.000000,0.000000, -0.043071,0.186427,0.181855, 0.000000,0.000000,0.000000, 0.000000,0.000000,0.000000
0.260019,1020.051758,56.397919,0, 0.014357,-9.987642,-0.177069, 0.030362,-0.000266,0.013850, 0.000000,1.000000,0.000000,0.000000, 0.014357,0.181643,0.177069, 0.000000,0.000000,0.000000, 0.000000,0.000000,0.000000
0.270021,1020.051758,56.397919,0, 0.004786,-10.006784,-0.167498, 0.025302,0.000266,0.008789, 0.000000,1.000000,0.000000,0.000000, 0.004786,0.200785,0.167498, 0.000000,0.000000,0.000000, 0.000000,0.000000,0.000000
0.280022,1020.051758,56.397919,0, -0.009571,-10.011570,-0.162712, 0.030895,0.002131,0.011985, 0.000000,1.000000,0.000000,0.000000, -0.009571,0.205570,0.162712, 0.000000,0.000000,0.000000, 0.000000,0.000000,0.000000
0.290024,1020.078613,56.395832,0, -0.028714,-9.992427,-0.114855, 0.027965,0.003196,0.009588, 0.000000,1.000000,0.000000,0.000000, -0.028714,0.186427,0.114855, 0.000000,0.000000,0.000000, 0.000000,0.000000,0.000000
0.300026,1020.078613,56.395832,0, -0.028714,-9.987642,-0.148355, 0.027699,-0.003196,0.011186, 0.000000,1.000000,0.000000,0.000000, -0.028714,0.181643,0.148355, 0.000000,0.000000,0.000000, 0.000000,0.000000,0.000000
0.310026,1020.078613,56.395832,0, 0.019143,-9.997213,-0.148355, 0.026900,-0.001598,0.014649, 0.000000,1.000000,0.000000,0.000000, 0.019143,0.191214,0.148355, 0.000000,0.000000,0.000000, 0.000000,0.000000,0.000000
0.320028,1020.078613,56.395832,0, -0.019143,-9.992427,-0.081356, 0.026101,-0.000533,0.013317, 0.000000,1.000000,0.000000,0.000000, -0.019143,0.186427,0.081356, 0.000000,0.000000,0.000000, 0.000000,0.000000,0.000000
0.330030,1020.103760,56.400002,0, -0.052642,-10.030712,-0.071785, 0.025568,0.000533,0.011719, 0.000000,1.000000,0.000000,0.000000, -0.052642,0.224712,0.071785, 0.000000,0.000000,0.000000, 0.000000,0.000000,0.000000
0.340030,1020.103760,56.400002,0, -0.052642,-9.982856,-0.019143, 0.027433,-0.002663,0.013583, 0.000000,1.000000,0.000000,0.000000, -0.052642,0.176856,0.019143, 0.000000,0.000000,0.000000, 0.000000,0.000000,0.000000
0.350032,1020.103760,56.400002,0, -0.071785,-10.001998,-0.086142, 0.022905,-0.003196,0.011719, 0.000000,1.000000,0.000000,0.000000, -0.071785,0.195998,0.086142, 0.000000,0.000000,0.000000, 0.000000,0.000000,0.000000
0.360034,1020.103760,56.400002,0, -0.052642,-10.021141,-0.057428, 0.025036,-0.003196,0.014649, 0.000000,1.000000,0.000000,0.000000, -0.052642,0.215141,0.057428, 0.000000,0.000000,0.000000, 0.000000,0.000000,0.000000
0.370034,1020.103760,56.400002,0, -0.114855,-9.973285,-0.047856, 0.023704,0.001332,0.010653, 0.000000,1.000000,0.000000,0.000000, -0.114855,0.167285,0.047856, 0.000000,0.000000,0.000000, 0.000000,0.000000,0.000000
0.380034,1020.074463,56.406250,0, -0.119641,-9.987642,-0.157926, 0.021307,0.000799,0.008789, 0.000000,1.000000,0.000000,0.000000, -0.119641,0.181643,0.157926, 0.000000,0.000000,0.000000, 0.000000,0.000000,0.000000
0.390034,1020.074463,56.406250,0, -0.090927,-10.006784,-0.133998, 0.025568,0.000799,0.007990, 0.000000,1.000000,0.000000,0.000000, -0.090927,0.200785,0.133998, 0.000000,0.000000,0.000000, 0.000000,0.000000,0.000000
0.400035,1020.074463,56.406250,0, -0.143569,-10.021141,-0.090927, 0.025835,-0.000799,0.008789, 0.000000,1.000000,0.000000,0.000000, -0.143569,0.215141,0.090927, 0.000000,0.000000,0.000000, 0.000000,0.000000,0.000000
0.410035,1020.074463,56.406250,0, -0.110070,-9.982856,-0.105284, 0.026101,-0.003995,0.007457, 0.000000,1.000000,0.000000,0.000000, -0.110070,0.176856,0.105284, 0.000000,0.000000,0.000000, 0.000000,0.000000,0.000000
0.420036,1020.125732,56.402084,0, -0.071785,-9.987642,-0.157926, 0.022905,-0.001598,0.012518, 0.000000,1.000000,0.000000,0.000000, -0.071785,0.181643,0.157926, 0.000000,0.000000,0.000000, 0.000000,0.000000,0.000000
0.430036,1020.125732,56.402084,0, -0.090927,-10.021141,-0.210568, 0.022905,0.001065,0.010653, 0.000000,1.000000,0.000000,0.000000, -0.090927,0.215141,0.210568, 0.000000,0.000000,0.000000, 0.000000,0.000000,0.000000
0.440036,1020.125732,56.402084,0, -0.100499,-10.001998,-0.234497, 0.023704,0.000000,0.007724, 0.000000,1.000000,0.000000,0.000000, -0.100499,0.195998,0.234497, 0.000000,0.000000,0.000000, 0.000000,0.000000,0.000000
0.450286,1020.125732,56.402084,0, -0.090927,-9.934999,-0.258425, 0.023171,-0.003995,0.011985, 0.000000,1.000000,0.000000,0.000000, -0.090927,0.129000,0.258425, 0.000000,0.000000,0.000000, 0.000000,0.000000,0.000000
0.460287,1020.092285,56.402084,0, -0.095713,-10.025927,-0.177069, 0.018111,0.001598,0.004528, 0.000000,1.000000,0.000000,0.000000, -0.095713,0.219927,0.177069, 0.000000,0.000000,0.000000, 0.000000,0.000000,0.000000
0.470289,1020.092285,56.402084,0, -0.105284,-10.001998,-0.224925, 0.022905,-0.002131,0.006126, 0.000000,1.000000,0.000000,0.000000, -0.105284,0.195998,0.224925, 0.000000,0.000000,0.000000, 0.000000,0.000000,0.000000
0.480289,1020.092285,56.402084,0, -0.038285,-9.987642,-0.277567, 0.021840,-0.004261,0.007457, 0.000000,1.000000,0.000000,0.000000, -0.038285,0.181643,0.277567, 0.000000,0.000000,0.000000, 0.000000,0.000000,0.000000
0.490289,1020.092285,56.402084,0, -0.047856,-9.982856,-0.301496, 0.027166,0.003729,0.005859, 0.000000,1.000000,0.000000,0.000000, -0.047856,0.176856,0.301496, 0.000000,0.000000,0.000000, 0.000000,0.000000,0.000000
0.500291,1020.119873,56.406250,0, -0.023928,-10.016355,-0.234497, 0.027433,0.001065,0.010387, 0.000000,1.000000,0.000000,0.000000, -0.023928,0.210355,0.234497, 0.000000,0.000000,0.000000, 0.000000,0.000000,0.000000
0.510293,1020.119873,56.406250,0, -0.124427,-10.035498,-0.244068, 0.030362,-0.005060,0.007724, 0.000000,1.000000,0.000000,0.000000, -0.124427,0.229498,0.244068, 0.000000,0.000000,0.000000, 0.000000,0.000000,0.000000
0.520293,1020.119873,56.406250,0, -0.066999,-10.001998,-0.210568, 0.027965,-0.002131,0.007457, 0.000000,1.000000,0.000000,0.000000, -0.066999,0.195998,0.210568, 0.000000,0.000000,0.000000, 0.000000,0.000000,0.000000
0.530293,1020.119873,56.406250,0, -0.043071,-10.035498,-0.153141, 0.031161,-0.001332,0.011186, 0.000000,1.000000,0.000000,0.000000, -0.043071,0.229498,0.153141, 0.000000,0.000000,0.000000, 0.000000,0.000000,0.000000
0.540294,1020.093262,56.402084,0, 0.019143,-10.030712,-0.191426, 0.031960,-0.003462,0.006658, 0.000000,1.000000,0.000000,0.000000, 0.019143,0.224712,0.191426, 0.000000,0.000000,0.000000, 0.000000,0.000000,0.000000
0.550295,1020.087891,56.402084,0, -0.105284,-10.021141,-0.124427, 0.026634,-0.000266,0.007457, 0.000000,1.000000,0.000000,0.000000, -0.105284,0.215141,0.124427, 0.000000,0.000000,0.000000, 0.000000,0.000000,0.000000
0.560295,1020.113281,56.408333,0, -0.071785,-9.973285,-0.057428, 0.026900,-0.001598,0.006392, 0.000000,1.000000,0.000000,0.000000, -0.071785,0.167285,0.057428, 0.000000,0.000000,0.000000, 0.000000,0.000000,0.000000
0.570295,1020.113281,56.408333,0, -0.105284,-9.992427,-0.095713, 0.031694,-0.001065,0.007191, 0.000000,1.000000,0.000000,0.000000, -0.105284,0.186427,0.095713, 0.000000,0.000000,0.000000, 0.000000,0.000000,0.000000
0.580295,1020.113281,56.408333,0, -0.047856,-9.982856,-0.124427, 0.027433,-0.004528,0.006658, 0.000000,1.000000,0.000000,0.000000, -0.047856,0.176856,0.124427, 0.000000,0.000000,0.000000, 0.000000,0.000000,0.000000
0.590296,1020.113281,56.408333,0, -0.043071,-10.025927,-0.181855, 0.027965,-0.003729,0.008256, 0.000000,1.000000,0.000000,0.000000, -0.043071,0.219927,0.181855, 0.000000,0.000000,0.000000, 0.000000,0.000000,0.000000
0.600296,1020.059814,56.402084,0, -0.071785,-9.987642,-0.143569, 0.027433,0.000000,0.005060, 0.000000,1.000000,0.000000,0.000000, -0.071785,0.181643,0.143569, 0.000000,0.000000,0.000000, 0.000000,0.000000,0.000000
0.610299,1020.059814,56.402084,0, -0.038285,-10.001998,-0.095713, 0.028764,-0.003995,0.004794, 0.000000,1.000000,0.000000,0.000000, -0.038285,0.195998,0.095713, 0.000000,0.000000,0.000000, 0.000000,0.000000,0.000000
0.620299,1020.059814,56.402084,0, -0.052642,-9.982856,-0.148355, 0.025835,-0.000266,0.006925, 0.000000,1.000000,0.000000,0.000000, -0.052642,0.176856,0.148355, 0.000000,0.000000,0.000000, 0.000000,0.000000,0.000000
0.630300,1020.059814,56.402084,0, -0.047856,-10.025927,-0.119641, 0.021573,0.000533,0.003729, 0.000000,1.000000,0.000000,0.000000, -0.047856,0.219927,0.119641, 0.000000,0.000000,0.000000, 0.000000,0.000000,0.000000
0.640300,1020.147705,56.402084,0, -0.105284,-9.992427,-0.162712, 0.024503,-0.001332,0.005859, 0.000000,1.000000,0.000000,0.000000, -0.105284,0.186427,0.162712, 0.000000,0.000000,0.000000, 0.000000,0.000000,0.000000
0.650301,1020.147705,56.402084,0, -0.014357,-9.997213,-0.181855, 0.018644,-0.002131,0.008256, 0.000000,1.000000,0.000000,0.000000, -0.014357,0.191214,0.181855, 0.000000,0.000000,0.000000, 0.000000,0.000000,0.000000
0.660301,1020.147705,56.402084,0, -0.004786,-9.992427,-0.153141, 0.017845,0.000533,0.007724, 0.000000,1.000000,0.000000,0.000000, -0.004786,0.186427,0.153141, 0.000000,0.000000,0.000000, 0.000000,0.000000,0.000000
0.670301,1020.147705,56.402084,0, -0.066999,-9.973285,-0.200997, 0.024503,-0.000533,0.016513, 0.000000,1.000000,0.000000,0.000000, -0.066999,0.167285,0.200997, 0.000000,0.000000,0.000000, 0.000000,0.000000,0.000000
0.680301,1020.147705,56.402084,0, -0.086142,-10.011570,-0.191426, 0.019975,-0.008256,0.007457, 0.000000,1.000000,0.000000,0.000000, -0.086142,0.205570,0.191426, 0.000000,0.000000,0.000000, 0.000000,0.000000,0.000000
0.690301,1020.096680,56.410416,0, -0.004786,-10.025927,-0.267996, 0.024769,0.002930,0.010920, 0.000000,1.000000,0.000000,0.000000, -0.004786,0.219927,0.267996, 0.000000,0.000000,0.000000, 0.000000,0.000000,0.000000
0.700302,1020.096680,56.410416,0, -0.057428,-10.016355,-0.272782, 0.025835,0.001065,0.010653, 0.000000,1.000000,0.000000,0.000000, -0.057428,0.210355,0.272782, 0.000000,0.000000,0.000000, 0.000000,0.000000,0.000000
0.710304,1020.096680,56.410416,0, -0.028714,-10.011570,-0.220140, 0.026367,-0.000533,0.017312, 0.000000,1.000000,0.000000,0.000000, -0.028714,0.205570,0.220140, 0.000000,0.000000,0.000000, 0.000000,0.000000,0.000000
0.720304,1020.096680,56.410416,0, 0.000000,-10.016355,-0.258425, 0.030362,0.002663,0.006925, 0.000000,1.000000,0.000000,0.000000, 0.000000,0.210355,0.258425, 0.000000,0.000000,0.000000, 0.000000,0.000000,0.000000
0.730305,1020.081299,56.410416,0, -0.023928,-9.982856,-0.258425, 0.026634,-0.000266,0.008523, 0.000000,1.000000,0.000000,0.000000, -0.023928,0.176856,0.258425, 0.000000,0.000000,0.000000, 0.000000,0.000000,0.000000
0.740307,1020.081299,56.410416,0, 0.023928,-9.997213,-0.229711, 0.027965,-0.005859,0.012518, 0.000000,1.000000,0.000000,0.000000, 0.023928,0.191214,0.229711, 0.000000,0.000000,0.000000, 0.000000,0.000000,0.000000
0.750309,1020.081299,56.410416,0, 0.009571,-9.987642,-0.196211, 0.032493,-0.003196,0.009322, 0.000000,1.000000,0.000000,0.000000, 0.009571,0.181643,0.196211, 0.000000,0.000000,0.000000, 0.000000,0.000000,0.000000
0.760311,1020.081299,56.410416,0, -0.023928,-9.997213,-0.162712, 0.025036,0.001598,0.015714, 0.000000,1.000000,0.000000,0.000000, -0.023928,0.191214,0.162712, 0.000000,0.000000,0.000000, 0.000000,0.000000,0.000000
0.770313,1020.030029,56.408333,0, -0.043071,-10.016355,-0.066999, 0.024503,0.001864,0.018377, 0.000000,1.000000,0.000000,0.000000, -0.043071,0.210355,0.066999, 0.000000,0.000000,0.000000, 0.000000,0.000000,0.000000
0.780313,1020.030029,56.408333,0, 0.000000,-10.001998,-0.153141, 0.026634,-0.001864,0.015181, 0.000000,1.000000,0.000000,0.000000, 0.000000,0.195998,0.153141, 0.000000,0.000000,0.000000, 0.000000,0.000000,0.000000
0.790316,1020.030029,56.408333,0, -0.038285,-9.987642,-0.133998, 0.023704,-0.006126,0.015448, 0.000000,1.000000,0.000000,0.000000, -0.038285,0.181643,0.133998, 0.000000,0.000000,0.000000, 0.000000,0.000000,0.000000
0.800319,1020.030029,56.408333,0, -0.043071,-10.006784,-0.172283, 0.029031,-0.003196,0.011719, 0.000000,1.000000,0.000000,0.000000, -0.043071,0.200785,0.172283, 0.000000,0.000000,0.000000, 0.000000,0.000000,0.000000
0.810319,1020.064697,56.404167,0, -0.071785,-10.011570,-0.114855, 0.028764,-0.004261,0.014116, 0.000000,1.000000,0.000000,0.000000, -0.071785,0.205570,0.114855, 0.000000,0.000000,0.000000, 0.000000,0.000000,0.000000
0.820319,1020.064697,56.404167,0, -0.081356,-10.021141,-0.153141, 0.030096,-0.001065,0.010653, 0.000000,1.000000,0.000000,0.000000, -0.081356,0.215141,0.153141, 0.000000,0.000000,0.000000, 0.000000,0.000000,0.000000
0.830321,1020.064697,56.404167,0, -0.119641,-10.045069,-0.186640, 0.025036,0.001332,0.011985, 0.000000,1.000000,0.000000,0.000000, -0.119641,0.239069,0.186640, 0.000000,0.000000,0.000000, 0.000000,0.000000,0.000000
0.840321,1020.064697,56.404167,0, -0.114855,-10.011570,-0.110070, 0.028498,-0.001864,0.010920, 0.000000,1.000000,0.000000,0.000000, -0.114855,0.205570,0.110070, 0.000000,0.000000,0.000000, 0.000000,0.000000,0.000000
0.850321,1020.138428,56.408333,0, -0.047856,-10.035498,-0.071785, 0.025835,0.001864,0.007990, 0.000000,1.000000,0.000000,0.000000, -0.047856,0.229498,0.071785, 0.000000,0.000000,0.000000, 0.000000,0.000000,0.000000
0.860321,1020.138428,56.408333,0, -0.119641,-10.011570,-0.071785, 0.027166,0.003995,0.013051, 0.000000,1.000000,0.000000,0.000000, -0.119641,0.205570,0.071785, 0.000000,0.000000,0.000000, 0.000000,0.000000,0.000000
0.870322,1020.138428,56.408333,0, -0.119641,-10.011570,-0.138784, 0.027166,-0.003462,0.009322, 0.000000,1.000000,0.000000,0.000000, -0.119641,0.205570,0.138784, 0.000000,0.000000,0.000000, 0.000000,0.000000,0.000000
0.880322,1020.138428,56.408333,0, -0.105284,-9.949356,-0.119641, 0.032759,0.002131,0.009055, 0.000000,1.000000,0.000000,0.000000, -0.105284,0.143356,0.119641, 0.000000,0.000000,0.000000, 0.000000,0.000000,0.000000
0.890323,1020.128662,56.408333,0, -0.143569,-10.001998,0.004786, 0.025835,-0.001598,0.011186, 0.000000,1.000000,0.000000,0.000000, -0.143569,0.195998,-0.004786, 0.000000,0.000000,0.000000, 0.000000,0.000000,0.000000
0.900323,1020.128662,56.408333,0, -0.143569,-10.006784,-0.047856, 0.020774,-0.003995,0.007990, 0.000000,1.000000,0.000000,0.000000, -0.143569,0.200785,0.047856, 0.000000,0.000000,0.000000, 0.000000,0.000000,0.000000
0.910323,1020.128662,56.408333,0, -0.110070,-9.982856,-0.071785, 0.020242,0.001065,0.009854, 0.000000,1.000000,0.000000,0.000000, -0.110070,0.176856,0.071785, 0.000000,0.000000,0.000000, 0.000000,0.000000,0.000000
0.920323,1020.128662,56.408333,0, -0.124427,-10.001998,-0.153141, 0.021307,0.002663,0.010653, 0.000000,1.000000,0.000000,0.000000, -0.124427,0.195998,0.153141, 0.000000,0.000000,0.000000, 0.000000,0.000000,0.000000
0.930324,1020.128662,56.408333,0, -0.095713,-10.006784,-0.110070, 0.015714,0.000533,0.005593, 0.000000,1.000000,0.000000,0.000000, -0.095713,0.200785,0.110070, 0.000000,0.000000,0.000000, 0.000000,0.000000,0.000000
0.940326,1020.069336,56.406250,0, -0.110070,-10.006784,-0.114855, 0.021307,-0.003995,0.008523, 0.000000,1.000000,0.000000,0.000000, -0.110070,0.200785,0.114855, 0.000000,0.000000,0.000000, 0.000000,0.000000,0.000000
0.952802,1020.069336,56.406250,0, -0.062213,-9.982856,-0.263210, 0.021840,-0.003995,0.006925, 0.000000,1.000000,0.000000,0.000000, -0.062213,0.176856,0.263210, 0.000000,0.000000,0.000000, 0.000000,0.000000,0.000000
0.962803,1020.069336,56.406250,0, -0.043071,-10.030712,-0.282353, 0.019176,-0.006658,0.006925, 0.000000,1.000000,0.000000,0.000000, -0.043071,0.224712,0.282353, 0.000000,0.000000,0.000000, 0.000000,0.000000,0.000000
0.972803,1020.069336,56.412498,0, -0.014357,-9.997213,-0.282353, 0.020242,-0.001598,0.008256, 0.000000,1.000000,0.000000,0.000000, -0.014357,0.191214,0.282353, 0.000000,0.000000,0.000000, 0.000000,0.000000,0.000000
0.982803,1020.099854,56.412498,0, 0.004786,-10.025927,-0.282353, 0.027166,0.001332,0.009322, 0.000000,1.000000,0.000000,0.000000, 0.004786,0.219927,0.282353, 0.000000,0.000000,0.000000, 0.000000,0.000000,0.000000
0.992803,1020.099854,56.412498,0, -0.043071,-10.030712,-0.263210, 0.025835,-0.002131,0.012518, 0.000000,1.000000,0.000000,0.000000, -0.043071,0.224712,0.263210, 0.000000,0.000000,0.000000, 0.000000,0.000000,0.000000
1.002804,1020.099854,56.412498,0, 0.023928,-10.011570,-0.215354, 0.029297,-0.000533,0.001065, 0.000000,1.000000,0.000000,0.000000, 0.023928,0.205570,0.215354, 0.000000,0.000000,0.000000, 0.000000,0.000000,0.000000
1.012807,1020.099854,56.412498,0, -0.028714,-10.011570,-0.301496, 0.026900,0.004261,0.005859, 0.000000,1.000000,0.000000,0.000000, -0.028714,0.205570,0.301496, 0.000000,0.000000,0.000000, 0.000000,0.000000,0.000000
1.022807,1020.139648,56.412498,0, 0.023928,-9.997213,-0.244068, 0.029563,0.001332,0.004794, 0.000000,1.000000,0.000000,0.000000, 0.023928,0.191214,0.244068, 0.000000,0.000000,0.000000, 0.000000,0.000000,0.000000
1.032808,1020.139648,56.412498,0, 0.033500,-9.997213,-0.210568, 0.027699,-0.000799,0.012252, 0.000000,1.000000,0.000000,0.000000, 0.033500,0.191214,0.210568, 0.000000,0.000000,0.000000, 0.000000,0.000000,0.000000
1.042808,1020.139648,56.412498,0, 0.062213,-9.997213,-0.196211, 0.029297,0.002930,0.011186, 0.000000,1.000000,0.000000,0.000000, 0.062213,0.191214,0.196211, 0.000000,0.000000,0.000000, 0.000000,0.000000,0.000000
1.052810,1020.090820,56.410416,0, -0.014357,-10.011570,-0.119641, 0.027699,-0.002397,0.012518, 0.000000,1.000000,0.000000,0.000000, -0.014357,0.205570,0.119641, 0.000000,0.000000,0.000000, 0.000000,0.000000,0.000000
1.062812,1020.090820,56.410416,0, -0.057428,-10.006784,-0.119641, 0.030096,-0.003995,0.019443, 0.000000,1.000000,0.000000,0.000000, -0.057428,0.200785,0.119641, 0.000000,0.000000,0.000000, 0.000000,0.000000,0.000000
1.072812,1020.090820,56.410416,0, -0.071785,-10.001998,-0.157926, 0.023970,0.002663,0.016779, 0.000000,1.000000,0.000000,0.000000, -0.071785,0.195998,0.157926, 0.000000,0.000000,0.000000, 0.000000,0.000000,0.000000
1.082812,1020.090820,56.410416,0, -0.047856,-10.001998,-0.105284, 0.029830,-0.001332,0.017046, 0.000000,1.000000,0.000000,0.000000, -0.047856,0.195998,0.105284, 0.000000,0.000000,0.000000, 0.000000,0.000000,0.000000
1.092814,1020.090820,56.410416,0, -0.057428,-9.982856,-0.110070, 0.026101,-0.001598,0.014116, 0.000000,1.000000,0.000000,0.000000, -0.057428,0.176856,0.110070, 0.000000,0.000000,0.000000, 0.000000,0.000000,0.000000
1.102814,1020.094238,56.414581,0, -0.114855,-10.025927,-0.157926, 0.022905,-0.001864,0.012518, 0.000000,1.000000,0.000000,0.000000, -0.114855,0.219927,0.157926, 0.000000,0.000000,0.000000, 0.000000,0.000000,0.000000
1.112814,1020.094238,56.414581,0, -0.119641,-10.016355,-0.143569, 0.027965,-0.001332,0.013583, 0.000000,1.000000,0.000000,0.000000, -0.119641,0.210355,0.143569, 0.000000,0.000000,0.000000, 0.000000,0.000000,0.000000
1.122815,1020.094238,56.414581,0, -0.095713,-9.920642,-0.172283, 0.024503,0.003462,0.005327, 0.000000,1.000000,0.000000,0.000000, -0.095713,0.114642,0.172283, 0.000000,0.000000,0.000000, 0.000000,0.000000,0.000000
1.132817,1020.094238,56.414581,0, -0.028714,-9.987642,-0.205783, 0.025302,-0.000266,0.006392, 0.000000,1.000000,0.000000,0.000000, -0.028714,0.181643,0.205783, 0.000000,0.000000,0.000000, 0.000000,0.000000,0.000000
1.142817,1020.134033,56.412498,0, -0.114855,-9.887143,-0.019143, 0.027166,0.001598,0.006658, 0.000000,1.000000,0.000000,0.000000, -0.114855,0.081143,0.019143, 0.000000,0.000000,0.000000, 0.000000,0.000000,0.000000
1.152817,1020.134033,56.412498,0, 0.062213,-10.068998,-0.330210, 0.030096,-0.013850,0.002663, 0.000000,1.000000,0.000000,0.000000, 0.062213,0.262999,0.330210, 0.000000,0.000000,0.000000, 0.000000,0.000000,0.000000
1.162817,1020.134033,56.412498,0, 0.263210,-9.949356,-0.483350, 0.034358,-0.015980,0.006126, 0.000000,1.000000,0.000000,0.000000, 0.263210,0.143356,0.483350, 0.000000,0.000000,0.000000, 0.000000,0.000000,0.000000
1.172817,1020.134033,56.412498,1, -0.311067,-9.939785,0.019143, 0.043147,-0.017578,0.029563, -0.000216,1.000000,0.000148,0.000088, -0.314003,0.133700,-0.014909, -0.003140,0.001337,-0.000149, -0.000031,0.000013,-0.000001
1.182818,1020.100098,56.414581,1, 0.076570,-14.002798,-0.512064, 0.024769,-0.047674,0.019443, -0.000340,1.000000,0.000245,0.000326, 0.069369,4.196484,0.521621, -0.002446,0.043306,0.005068, -0.000056,0.000446,0.000049
1.192818,1020.100098,56.414581,1, 7.690532,-21.975683,14.500505, -0.082565,-0.339047,0.308152, 0.000073,0.999996,0.001787,0.002021, 7.670517,12.195009,-14.472682, 0.074259,0.165256,-0.139659, 0.000687,0.002099,-0.001347
1.202818,1020.100098,56.414581,1, 21.970898,-16.194624,-19.836498, 0.523086,-0.527880,-0.463693, -0.002533,0.999986,-0.000537,0.004665, 21.801838,6.263891,20.122416, 0.292277,0.227895,0.061565, 0.003609,0.004378,-0.000732
1.212818,1020.100098,56.414581,1, 11.514262,-40.089352,-11.705688, 1.289339,5.834650,-0.149682, -0.008958,0.999659,-0.001389,-0.024507, 12.202616,30.039391,11.840567, 0.414303,0.528289,0.179971, 0.007753,0.009661,0.001068
1.222818,1020.100098,56.414581,1, -6.843473,-9.719645,42.338604, -0.263940,2.867653,0.233844, -0.007589,0.999216,-0.000381,-0.038846, -10.096258,0.557107,-41.527508, 0.313341,0.533860,-0.235304, 0.010886,0.014999,-0.001285
1.232821,1020.105957,56.414581,1, 1.378266,-24.957140,5.632704, -1.665940,2.617563,0.562771, 0.000851,0.998648,0.002008,-0.051941, 0.684190,15.145559,-5.782510, 0.320185,0.685361,-0.293147, 0.014089,0.021855,-0.004217
1.242821,1020.105957,56.414581,1, 3.512664,-18.965511,-7.451250, -1.302922,3.553205,0.422677, 0.007430,0.997534,0.003795,-0.069683, 4.350694,9.294230,6.618405, 0.363692,0.778303,-0.226963, 0.017726,0.029638,-0.006487
1.252823,1020.105957,56.414581,1, -6.460621,-15.811772,-11.519048, -1.179608,3.418439,0.543594, 0.013438,0.996122,0.006222,-0.086726, -4.607448,6.254635,12.052706, 0.317608,0.840862,-0.106412, 0.020902,0.038048,-0.007551
1.262825,1020.105957,56.414581,1, -1.550549,-13.576875,-14.352150, -0.520689,1.769278,0.469819, 0.016180,0.995260,0.008455,-0.095521, 0.932437,4.225942,13.962636, 0.326934,0.883130,0.033243, 0.024172,0.046882,-0.007219
1.272825,1020.122559,56.418751,1, -12.653246,-29.953354,-9.427721, 0.308152,1.664608,0.389651, 0.014762,0.994436,0.010676,-0.103756, -11.163157,20.195251,11.022664, 0.215303,1.085083,0.143469, 0.026325,0.057732,-0.005784
1.282825,1020.122559,56.418751,1, -29.594431,-5.819345,5.728417, 0.261543,-1.192925,-0.488995, 0.013271,0.995079,0.008292,-0.097845, -30.249075,-4.561600,0.008359, -0.087188,1.039467,0.143553, 0.025454,0.068127,-0.004349
1.292827,1020.122559,56.418751,1, 8.681160,-7.336394,-6.537191, 0.637079,-2.394905,-0.609912, 0.009900,0.996237,0.005409,-0.085933, 9.579491,-2.257656,4.814147, 0.008626,1.016885,0.191704, 0.025540,0.078298,-0.002431
1.302827,1020.122559,56.418751,1, 5.484349,-0.689133,-3.081956, 0.572891,-1.257378,-0.330258, 0.006939,0.996790,0.003947,-0.079669, 5.897700,-9.035288,2.162081, 0.067603,0.926533,0.213325, 0.026216,0.087563,-0.000298
1.312827,1020.102783,56.418751,1, 4.407579,14.170295,4.709075, 0.193095,0.264473,-0.313213, 0.005846,0.996695,0.002473,-0.080994, 3.672807,-24.014374,-5.199246, 0.104331,0.686389,0.161332, 0.027259,0.094427,0.001315
1.322827,1020.102783,56.418751,1, 15.845271,7.101897,0.765703, -0.127842,-0.882908,0.039684, 0.006510,0.997038,0.002593,-0.076593, 15.586028,-16.851328,-3.087906, 0.260191,0.517876,0.130453, 0.029861,0.099606,0.002620
1.332827,1020.102783,56.418751,1, -2.143969,-20.128424,-2.306681, 0.181908,0.991840,0.270865, 0.005694,0.996647,0.004045,-0.081526, -1.921638,10.332874,2.409183, 0.240975,0.621204,0.154545, 0.032271,0.105818,0.004165
1.342827,1020.102783,56.418751,1, -3.957729,-30.407990,-2.234896, 0.152079,2.284108,0.258613, 0.004995,0.995649,0.005460,-0.092892, -3.834767,20.583811,2.656888, 0.202627,0.827042,0.181114, 0.034297,0.114088,0.005976
1.352827,1020.095947,56.414581,1, -7.082755,-12.179467,1.497907, 0.030096,0.937241,0.055931, 0.004846,0.995202,0.005776,-0.097554, -7.389784,2.281220,-0.197401, 0.128729,0.849855,0.179140, 0.035584,0.122587,0.007768
1.362828,1020.095947,56.414581,1, -5.546563,-34.571503,-3.206382, 0.176582,0.778504,0.073509, 0.003980,0.994816,0.006247,-0.101421, -5.242773,24.726723,4.029855, 0.076297,1.097147,0.219443, 0.036347,0.133559,0.009962
1.372829,1020.095947,56.414581,1, -3.512664,-12.892528,-11.648260, 0.352897,-0.040750,-0.380596, 0.002033,0.994852,0.004532,-0.101214, -1.216517,3.113477,12.076654, 0.064130,1.128284,0.340221, 0.036989,0.144843,0.013365
1.382830,1020.095947,56.414581,1, -2.033899,-30.235706,3.182454, 0.620033,-0.291107,-0.384058, -0.001239,0.995007,0.002932,-0.099755, -2.794111,20.422729,-2.623117, 0.036186,1.332532,0.313987, 0.037351,0.158170,0.016505
1.392831,1020.086426,56.416668,1, 0.574277,-18.893726,1.813760, 0.442386,-1.019273,-0.438125, -0.003644,0.995502,0.000979,-0.094673, 0.198294,9.101540,-1.748868, 0.038169,1.423557,0.296497, 0.037732,0.172407,0.019470
1.402834,1020.086426,56.416668,1, 10.724631,-19.262222,3.182454, 0.512433,-0.949759,-0.287911, -0.006327,0.995928,-0.000195,-0.089935, 10.010446,9.502954,-4.809854, 0.138304,1.518615,0.248384, 0.039116,0.187598,0.021955
1.412834,1020.086426,56.416668,1, 0.205783,-28.431519,5.039284, 0.219462,-0.448512,-0.089756, -0.007460,0.996119,-0.000529,-0.087698, -0.610640,18.697777,-4.577224, 0.132197,1.705592,0.202612, 0.040438,0.204654,0.023981
1.422834,1020.086426,56.416668,1, -0.492921,-19.860428,7.398607, 0.378998,-0.748674,-0.040217, -0.009368,0.996425,-0.000535,-0.083968, -1.671540,10.189480,-6.841517, 0.115482,1.807487,0.134197, 0.041593,0.222729,0.025323
1.432834,1020.060059,56.418751,1, -2.545963,-21.090338,5.680561, 0.051669,-0.667974,-0.016247, -0.009634,0.996697,-0.000563,-0.080639, -3.369489,11.388929,-4.793254, 0.081787,1.921377,0.086264, 0.042411,0.241942,0.026186
1.442837,1020.060059,56.418751,1, 0.349352,-34.762928,3.302095, -0.188833,-0.772644,0.121716, -0.008645,0.997010,0.000005,-0.076792, -0.114595,25.009148,-2.716849, 0.080641,2.171543,0.059087, 0.043217,0.263664,0.026777
1.455742,1020.060059,56.418751,1, -2.110470,-19.817356,0.076570, -0.368344,-0.672768,-0.016247, -0.006284,0.997352,-0.000244,-0.072463, -2.071665,10.009874,0.476985, 0.053906,2.300720,0.065243, 0.043913,0.293355,0.027619
1.465742,1020.060059,56.418751,1, 2.488536,-23.129023,-3.144169, -0.170722,0.161933,0.202150, -0.005359,0.997297,0.000697,-0.073276, 2.907400,13.293816,2.996110, 0.082980,2.433659,0.095204, 0.044743,0.317692,0.028571
1.475742,1020.026611,56.414581,1, -1.670190,-22.530819,-0.483350, -0.254618,-0.339846,0.210406, -0.004011,0.997425,0.001662,-0.071588, -1.645777,12.713739,0.902505, 0.066522,2.560796,0.104229, 0.045408,0.343300,0.029613
1.485742,1020.026611,56.414581,1, -0.004786,-24.253651,-1.258625, -0.141425,-0.735623,0.378998, -0.003164,0.997679,0.003516,-0.067927, 0.006153,14.439201,1.412330, 0.066584,2.705188,0.118352, 0.046074,0.370352,0.030797
1.495742,1020.026611,56.414581,1, 2.895315,-18.711872,-7.551748, 0.006658,0.074574,0.424275, -0.003054,0.997644,0.005633,-0.068306, 3.695082,8.897892,7.215072, 0.103535,2.794167,0.190503, 0.047109,0.398293,0.032702
1.505742,1020.026611,56.414581,1, 2.632105,-18.214167,-5.599205, 0.211738,1.046439,0.368078, -0.004014,0.997257,0.007526,-0.073524, 3.162140,8.407961,5.318649, 0.135156,2.878247,0.243690, 0.048461,0.427076,0.035139
1.515742,1020.052246,56.416668,1, -6.819544,-27.144180,2.230111, 0.143023,0.620033,0.281252, -0.004647,0.997010,0.008968,-0.076616, -7.545361,17.223455,-0.873725, 0.059702,3.050481,0.234952, 0.049058,0.457580,0.037488
1.525743,1020.052246,56.416668,1, -6.379265,-27.187250,1.028914, 0.205612,1.254449,-0.008523, -0.005732,0.996505,0.008975,-0.082859, -6.921155,17.265158,0.389090, -0.009516,3.223150,0.238844, 0.048962,0.489815,0.039877
1.535743,1020.052246,56.416668,1, -3.364309,-20.305492,4.953143, -0.030895,0.715914,-0.250623, -0.005714,0.996213,0.007693,-0.086419, -4.458137,10.490688,-4.041696, -0.054097,3.328057,0.198427, 0.048421,0.523096,0.041861
1.545743,1020.052246,56.416668,1, -4.981857,-22.918455,7.389036, -0.050071,0.875184,-0.230914, -0.005598,0.995835,0.006496,-0.090773, -6.508976,13.113243,-6.083962, -0.119187,3.459189,0.137587, 0.047230,0.557688,0.043237
1.555743,1020.013428,56.410416,1, 4.019942,-23.478374,0.516850, -0.375802,0.190964,-0.166993, -0.003808,0.995762,0.005489,-0.091731, 3.617372,13.720444,-1.040636, -0.083014,3.596394,0.127181, 0.046399,0.593652,0.044509
1.565743,1020.013428,56.410416,1, 3.871587,-20.367706,-0.717847, -0.375802,0.377400,-0.092952, -0.001990,0.995595,0.004846,-0.093619, 3.748415,10.597212,0.082826, -0.045529,3.702366,0.128009, 0.045944,0.630675,0.045789
1.575743,1020.013428,56.410416,1, 0.717847,-21.396620,-0.669990, -0.411757,0.270332,0.004794, 0.000055,0.995469,0.004675,-0.094974, 0.632187,11.597038,0.538822, -0.039207,3.818336,0.133397, 0.045552,0.668859,0.047123
1.585743,1020.013428,56.410416,1, 2.100898,-22.401606,-5.580062, -0.326263,-0.343841,0.104404, 0.001737,0.995627,0.005039,-0.093270, 2.868444,12.639288,5.036316, -0.010523,3.944729,0.183760, 0.045447,0.708306,0.048960
1.595743,1020.016113,56.414581,1, -4.608576,-22.861027,-4.082155, -0.043413,-0.349434,-0.023171, 0.001951,0.995789,0.004901,-0.091532, -4.018361,13.029957,4.785616, -0.050707,4.075028,0.231616, 0.044940,0.749056,0.051277
1.605745,1020.016113,56.414581,1, 2.148755,-24.449862,-7.747960, 0.114525,-0.098012,0.053534, 0.001407,0.995833,0.005219,-0.091040, 3.257378,14.693312,7.184558, -0.018126,4.221991,0.303476, 0.044759,0.791285,0.054312
1.615746,1020.016113,56.414581,1, 1.923829,-17.443678,-5.268995, 0.141159,-0.098811,0.058328, 0.000733,0.995877,0.005573,-0.090544, 2.646404,7.670704,4.827759, 0.008340,4.298706,0.351759, 0.044842,0.834276,0.057830
1.625746,1020.016113,56.414581,1, 0.574277,-25.665415,-3.594020, 0.277523,0.200552,0.010920, -0.000649,0.995785,0.005754,-0.091535, 0.928784,15.863501,3.489319, 0.017628,4.457341,0.386652, 0.045018,0.878849,0.061696
1.635746,1020.016113,56.414581,1, -2.254039,-21.884754,1.976471, 0.446648,0.265538,0.093218, -0.002838,0.995656,0.006421,-0.092844, -2.848780,12.055416,-1.375953, -0.010860,4.577895,0.372893, 0.044910,0.924628,0.065425
1.645748,1019.978760,56.416668,1, -2.311467,-18.448662,2.780460, 0.293770,0.115857,0.029031, -0.004291,0.995596,0.006701,-0.093412, -3.019603,8.627920,-2.121317, -0.041062,4.664191,0.351675, 0.044499,0.971280,0.068943
1.655748,1019.978760,56.416668,1, 2.900101,-28.618158,1.866402, 0.333454,0.691678,-0.100143, -0.006021,0.995262,0.006343,-0.096841, 2.157607,18.867872,-2.011947, -0.019486,4.852870,0.331556, 0.044304,1.019808,0.072258
1.665748,1019.978760,56.416668,1, -1.741975,-26.014767,8.638090, 0.098811,0.436260,-0.044478, -0.006548,0.995046,0.006156,-0.099007, -3.695368,16.283014,-7.754220, -0.056439,5.015700,0.254013, 0.043740,1.069965,0.074798
1.675748,1019.978760,56.416668,1, -4.010371,-21.918255,5.513063, -0.050870,-0.094550,-0.075640, -0.006329,0.995097,0.005758,-0.098536, -5.237599,12.121292,-4.318446, -0.108815,5.136913,0.210829, 0.042652,1.121334,0.076907
1.685748,1020.007568,56.416668,1, 3.704089,-25.119852,2.880958, -0.196024,-0.441054,-0.154476, -0.005417,0.995322,0.004907,-0.096342, 2.863352,15.379574,-3.242852, -0.080182,5.290709,0.178401, 0.041850,1.174241,0.078691
1.695748,1020.007568,56.416668,1, -1.631905,-27.574888,4.063013, -0.222392,-0.231980,-0.092685, -0.004349,0.995440,0.004344,-0.095190, -2.588084,17.783178,-3.418442, -0.106063,5.468541,0.144216, 0.040789,1.228927,0.080133
1.705748,1020.007568,56.416668,1, 5.867201,-25.325634,-1.679761, -0.184572,-0.729231,-0.038619, -0.003433,0.995785,0.004080,-0.091563, 5.885114,15.559347,0.773907, -0.047211,5.624134,0.151955, 0.040317,1.285168,0.081652
1.715748,1020.007568,56.416668,1, -1.871187,-24.114866,1.473979, -0.321469,-0.764921,-0.026900, -0.001829,0.996133,0.003812,-0.087760, -2.275452,14.297594,-1.020104, -0.069966,5.767110,0.141754, 0.039617,1.342839,0.083070
1.725748,1019.982422,56.416668,1, 4.235296,-28.206593,-7.058827, -0.131038,-0.803806,0.122781, -0.001108,0.996476,0.004374,-0.083759, 5.113470,18.426756,6.335750, -0.018831,5.951377,0.205112, 0.039429,1.402353,0.085121
1.735750,1019.982422,56.416668,1, 1.148555,-21.420547,0.019143, 0.005859,-1.086656,0.045810, -0.001094,0.996916,0.004610,-0.078343, 0.938189,11.624384,-0.136114, -0.009448,6.067645,0.203750, 0.039334,1.463042,0.087159
1.745752,1019.982422,56.416668,1, -0.196211,-22.325035,-0.205783, 0.105736,-0.640275,0.078569, -0.001575,0.997159,0.005047,-0.075148, -0.382559,12.515289,0.319937, -0.013274,6.192822,0.206950, 0.039202,1.524982,0.089229
1.755752,1019.982422,56.416668,1, -0.229711,-24.995424,1.718047, 0.067383,-0.598726,0.000000, -0.001896,0.997379,0.005077,-0.072161, -0.720936,15.190823,-1.554221, -0.020483,6.344731,0.191408, 0.038997,1.588430,0.091143
1.765753,1019.886475,56.418751,1, -2.708675,-23.870798,1.406980, 0.017046,-0.577153,0.028498, -0.001956,0.997582,0.005231,-0.069282, -3.119684,14.038795,-0.908627, -0.051683,6.485133,0.182321, 0.038480,1.653287,0.092966
1.775753,1019.886475,56.418751,1, -1.263410,-29.714071,3.393022, -0.053534,-0.566766,-0.113460, -0.001714,0.997777,0.004652,-0.066455, -1.971276,19.904119,-3.075517, -0.071396,6.684174,0.151566, 0.037766,1.720129,0.094482
1.785753,1019.886475,56.418751,1, -3.455236,-23.138596,0.713061, -0.202416,-0.583279,-0.117987, -0.000730,0.997971,0.004001,-0.063549, -3.700292,13.304607,-0.223601, -0.108399,6.817220,0.149330, 0.036682,1.788301,0.095975
1.795753,1019.886475,56.418751,1, -1.229911,-19.802999,3.158526, -0.296433,-0.612842,-0.247161, 0.000683,0.998165,0.002676,-0.060495, -1.709740,9.984909,-3.007470, -0.125496,6.917069,0.119255, 0.035427,1.857472,0.097168
1.805753,1019.886475,56.418751,1, -0.626920,-27.627529,1.986043, -0.272729,-0.506573,-0.230648, 0.001981,0.998316,0.001440,-0.057971, -0.938360,17.811365,-2.004800, -0.134880,7.095183,0.099207, 0.034078,1.928424,0.098160
1.815753,1019.883301,56.422916,1, -0.411565,-30.206993,0.473779, -0.274061,-0.486865,-0.221593, 0.003289,0.998451,0.000250,-0.055545, -0.487679,20.397173,-0.622734, -0.139757,7.299155,0.092980, 0.032681,2.001415,0.099090
1.825754,1019.883301,56.422916,1, -1.086341,-22.626532,-0.330210, -0.275925,-0.581681,-0.174717, 0.004619,0.998603,-0.000709,-0.052644, -1.024574,12.824646,0.232178, -0.150003,7.427414,0.095302, 0.031181,2.075697,0.100043
1.835754,1019.883301,56.422916,1, 0.325424,-31.858040,0.612563, -0.154742,-0.145953,-0.167526, 0.005347,0.998636,-0.001589,-0.051918, 0.343577,22.042429,-0.988419, -0.146568,7.647838,0.085417, 0.029715,2.152175,0.100897
1.845754,1019.883301,56.422916,1, -0.239282,-27.900312,0.105284, -0.226387,-0.147817,-0.130239, 0.006442,0.998666,-0.002302,-0.051182, -0.138891,18.091652,-0.445830, -0.147957,7.828754,0.080959, 0.028235,2.230463,0.101707
1.855754,1019.831543,56.416668,1, -0.200997,-32.255249,0.387637, -0.363817,-0.142757,-0.198688, 0.008206,0.998686,-0.003392,-0.050471, -0.047246,22.439495,-0.905087, -0.148429,8.053149,0.071908, 0.026751,2.310995,0.102426
1.865755,1019.831543,56.416668,1, -2.574677,-28.158735,1.148555, -0.380330,-0.314278,-0.174717, 0.010056,0.998744,-0.004374,-0.048902, -2.456258,18.348429,-1.469220, -0.172994,8.236651,0.057215, 0.025021,2.393369,0.102998
1.875755,1019.831543,56.416668,1, 0.157926,-28.900511,-0.267996, -0.400305,-0.200286,-0.299363, 0.011977,0.998762,-0.005976,-0.047908, 0.494722,19.088369,-0.456398, -0.168047,8.427535,0.052651, 0.023340,2.477645,0.103524
1.885756,1019.831543,56.416668,1, -2.244468,-23.540588,0.378066, -0.542795,-0.588073,-0.368344, 0.014582,0.998850,-0.007981,-0.044976, -1.924706,13.749582,-0.877898, -0.187296,8.565044,0.043871, 0.021467,2.563304,0.103963
1.895758,1019.787842,56.414581,1, -0.521635,-28.584660,-0.038285, -0.555047,-0.673833,-0.393646, 0.017239,0.998934,-0.010121,-0.041616, 0.020479,18.768417,-0.927271, -0.187091,8.752766,0.034596, 0.019596,2.650849,0.104309
1.905760,1019.787842,56.414581,1, -1.598405,-28.972296,-2.861816, -0.478075,-0.742016,-0.478608, 0.019490,0.999010,-0.012676,-0.037926, -0.684087,19.286533,1.815653, -0.193933,8.945669,0.052756, 0.017656,2.740324,0.104837
1.919047,1019.787842,56.414581,1, -2.502892,-31.590044,-1.225125, -0.371274,-1.083194,-0.486332, 0.021740,0.999160,-0.016137,-0.030768, -1.444257,21.873825,-0.029964, -0.213123,9.236307,0.052358, 0.014824,2.863046,0.105533
1.929047,1019.787842,56.414581,1, 1.986043,-25.828127,0.770489, -0.393913,-0.931381,-0.503910, 0.023555,0.999204,-0.018816,-0.026137, 2.880377,15.862566,-2.111744, -0.184319,9.394933,0.031241, 0.012981,2.956996,0.105845
1.939047,1019.723633,56.418751,1, -1.641476,-26.478975,-1.043271, -0.482869,-1.300259,-0.478075, 0.025782,0.999245,-0.021420,-0.019651, -0.489906,16.738306,-0.282878, -0.189218,9.562316,0.028412, 0.011089,3.052619,0.106129
1.949047,1019.723633,56.418751,1, -1.363909,-27.804600,-0.406780, -0.487397,-1.295198,-0.509769, 0.028027,0.999228,-0.024181,-0.013193, -0.027468,18.011866,-1.135005, -0.189493,9.742435,0.017062, 0.009194,3.150043,0.106300
1.962079,1019.723633,56.418751,1, -0.794417,-28.541588,-0.401994, -0.470085,-1.526911,-0.567298, 0.030797,0.999123,-0.028193,-0.003280, 0.812338,18.705677,-1.356674, -0.178907,9.986207,-0.000618, 0.006863,3.280184,0.106292
1.972079,1019.723633,56.418751,1, -1.895115,-22.616959,0.937986, -0.534273,-1.648361,-0.581414, 0.033223,0.998944,-0.031358,0.004940, -0.459603,12.772129,-2.452724, -0.183503,10.113928,-0.025145, 0.005028,3.381323,0.106040
1.982080,1019.676270,56.418751,1, -1.057628,-21.176479,0.114855, -0.433597,-1.644100,-0.599792, 0.035144,0.998697,-0.034616,0.013121, 0.431694,11.331417,-1.612112, -0.179185,10.227253,-0.041268, 0.003236,3.483606,0.105627
1.992081,1019.676270,56.418751,1, 0.468993,-20.252850,0.224925, -0.484201,-1.493619,-0.615505, 0.037343,0.998372,-0.037919,0.020555, 2.040365,10.280228,-1.682099, -0.158780,10.330066,-0.058091, 0.001648,3.586917,0.105047
2.002081,1019.676270,56.418751,1, 2.804388,-23.583660,-1.689333, -0.444517,-1.378295,-0.623229, 0.039363,0.997998,-0.041240,0.027402, 4.695910,13.536129,0.044404, -0.111821,10.465427,-0.057647, 0.000529,3.691571,0.104470
2.012081,1019.676270,56.418751,1, -0.066999,-20.195423,-1.555335, -0.460231,-1.355390,-0.513232, 0.041450,0.997587,-0.044004,0.034159, 1.663345,10.380829,-0.067885, -0.095187,10.569236,-0.058326, -0.000422,3.797263,0.103887
2.022081,1019.654541,56.418751,1, -1.708475,-18.893726,-1.909472, -0.424542,-1.294133,-0.562238, 0.043377,0.997127,-0.047003,0.040590, -0.004531,9.259754,0.188413, -0.095232,10.661834,-0.056442, -0.001375,3.903882,0.103322
2.032081,1019.654541,56.418751,1, -1.751546,-19.420149,-0.703490, -0.352631,-1.246991,-0.572891, 0.044958,0.996638,-0.050057,0.046764, 0.221822,9.672075,-1.122960, -0.093014,10.758554,-0.067671, -0.002305,4.011467,0.102646
2.042081,1019.654541,56.418751,1, -0.894916,-17.247465,-1.220340, -0.372606,-1.220357,-0.583012, 0.046644,0.996098,-0.053148,0.052807, 0.903945,7.479586,-0.396256, -0.083975,10.833350,-0.071634, -0.003145,4.119801,0.101929
2.052081,1019.654541,56.418751,1, -2.464607,-18.960726,-0.760918, -0.359023,-1.310912,-0.633084, 0.048250,0.995472,-0.056510,0.059282, -0.275483,9.286747,-1.246680, -0.086730,10.926218,-0.084100, -0.004012,4.229063,0.101088
2.062081,1019.567627,56.418751,1, -1.947758,-16.979469,-0.162712, -0.415486,-1.416381,-0.683421, 0.050119,0.994726,-0.060129,0.066282, 0.206911,7.202986,-1.665770, -0.084660,10.998248,-0.100758, -0.004859,4.339046,0.100081
2.072081,1019.567627,56.418751,1, -1.368695,-15.897913,-1.205983, -0.411225,-1.423306,-0.747875, 0.051982,0.993892,-0.064067,0.073295, 0.635324,6.175317,-0.515429, -0.078307,11.060001,-0.105912, -0.005642,4.449646,0.099022
2.082084,1019.567627,56.418751,1, 0.799203,-16.405191,-1.569692, -0.400039,-1.406793,-0.757463, 0.053796,0.992996,-0.068049,0.080217, 2.901598,6.436049,0.099985, -0.049283,11.124381,-0.104912, -0.006135,4.560923,0.097972
2.092087,1019.567627,56.418751,1, 0.799203,-16.476976,-2.388037, -0.386189,-1.415583,-0.735890, 0.055525,0.992041,-0.071927,0.087178, 2.895741,6.585619,0.873058, -0.020316,11.190257,-0.096179, -0.006338,4.672859,0.097010
2.102087,1019.570801,56.424999,1, 1.569692,-14.333007,-3.000600, -0.335319,-1.306651,-0.707125, 0.057025,0.991095,-0.075649,0.093581, 3.295750,4.432787,1.816052, 0.012641,11.234585,-0.078019, -0.006211,4.785204,0.096230
2.112088,1019.570801,56.424999,1, 1.416551,-13.007384,-2.914458, -0.308152,-1.231277,-0.669306, 0.058398,0.990152,-0.079171,0.099606, 3.013416,3.127016,1.830157, 0.042778,11.265858,-0.059715, -0.005784,4.897874,0.095633
2.122090,1019.570801,56.424999,1, 1.722832,-14.313865,-2.474179, -0.247427,-1.084525,-0.633883, 0.059509,0.989268,-0.082502,0.104887, 3.687495,4.286056,1.339073, 0.079661,11.308727,-0.046322, -0.004987,5.010984,0.095169
2.132090,1019.570801,56.424999,1, 1.220340,-13.323236,-1.718047, -0.236774,-0.990242,-0.612576, 0.060592,0.988408,-0.085701,0.109699, 3.252588,3.271278,0.596068, 0.112186,11.341440,-0.040361, -0.003865,5.124399,0.094766
2.142090,1019.567871,56.427082,1, 0.406780,-13.079168,0.535992, -0.234643,-0.917265,-0.597661, 0.061685,0.987562,-0.088802,0.114150, 2.982955,2.825576,-1.750124, 0.142016,11.369696,-0.057862, -0.002445,5.238096,0.094187
2.152090,1019.567871,56.427082,1, 0.564706,-12.782458,0.248854, -0.240236,-0.904481,-0.609380, 0.062817,0.986686,-0.091952,0.118533, 3.104416,2.529105,-1.407162, 0.173060,11.394987,-0.071934, -0.000714,5.352046,0.093468
2.162090,1019.567871,56.427082,1, 0.703490,-11.877971,0.464208, -0.269001,-0.889833,-0.593133, 0.064085,0.985787,-0.094997,0.122858, 3.188042,1.569865,-1.490918, 0.204941,11.410686,-0.086843, 0.001335,5.466152,0.092599
2.172090,1019.567871,56.427082,1, 0.181855,-10.533205,0.253639, -0.298031,-0.906079,-0.600857, 0.065492,0.984833,-0.098064,0.127271, 2.442906,0.363126,-1.291150, 0.229370,11.414317,-0.099755, 0.003629,5.580296,0.091602
2.182090,1019.567871,56.420834,1, -0.186640,-9.322437,0.014357, -0.315343,-0.936175,-0.598726, 0.066965,0.983824,-0.101116,0.131838, 1.846607,-0.726237,-1.044485, 0.247836,11.407055,-0.110200, 0.006107,5.694366,0.090500
2.192091,1019.484863,56.420834,1, 0.358923,-9.623932,-1.392623, -0.303358,-0.916466,-0.599525, 0.068389,0.982800,-0.104171,0.136297, 2.134543,-0.321007,0.408719, 0.269183,11.403845,-0.106112, 0.008799,5.808416,0.089439
2.202093,1019.484863,56.420834,1, 1.856830,-8.762516,-1.177269, -0.276192,-0.890898,-0.577686, 0.069675,0.981782,-0.107125,0.140620, 3.448166,-1.487331,0.724889, 0.303672,11.388968,-0.098862, 0.011837,5.922328,0.088450
2.212093,1019.484863,56.420834,1, 1.167697,-7.585248,-0.430708, -0.256483,-0.828575,-0.564635, 0.070886,0.980795,-0.110004,0.144626, 2.767404,-2.634985,-0.055525, 0.331346,11.362618,-0.099417, 0.015150,6.035954,0.087456
2.222093,1019.484863,56.420834,1, 1.502693,-7.680961,0.009571, -0.249558,-0.771579,-0.536137, 0.072072,0.979842,-0.112725,0.148355, 3.262000,-2.701522,-0.375705, 0.363966,11.335603,-0.103174, 0.018790,6.149311,0.086424
2.232093,1019.427979,56.424999,1, 1.617548,-6.599405,-0.445065, -0.251422,-0.622696,-0.475678, 0.073305,0.979013,-0.115092,0.151375, 3.009820,-3.701581,0.209328, 0.394064,11.298587,-0.101081, 0.022730,6.262297,0.085413
2.242093,1019.427979,56.424999,1, 0.401994,-5.900701,0.416351, -0.269267,-0.539866,-0.469286, 0.074667,0.978228,-0.117382,0.154000, 1.980814,-4.292647,-0.912459, 0.413872,11.255660,-0.110205, 0.026869,6.374853,0.084311
2.252093,1019.427979,56.424999,1, -0.205783,-4.795216,0.870987, -0.288710,-0.536670,-0.481005, 0.076134,0.977418,-0.119712,0.156613, 1.297507,-5.322850,-1.418782, 0.426847,11.202432,-0.124393, 0.031138,6.486877,0.083067
2.262095,1019.427979,56.424999,1, -0.124427,-4.895715,-0.253639, -0.302559,-0.449577,-0.501247, 0.077736,0.976644,-0.122096,0.158800, 1.100139,-5.040463,-0.356702, 0.437851,11.152017,-0.127961, 0.035517,6.598420,0.081787
2.272096,1019.413086,56.424999,1, 0.086142,-4.469793,-0.339781, -0.308685,-0.362219,-0.510302, 0.079427,0.975919,-0.124483,0.160558, 1.179299,-5.483604,-0.167601, 0.449645,11.097175,-0.129637, 0.040014,6.709403,0.080491
2.282096,1019.413086,56.424999,1, 0.736989,-4.163511,-1.143769, -0.290308,-0.323600,-0.506307, 0.081048,0.975223,-0.126848,0.162116, 1.475902,-5.766294,0.829879, 0.464404,11.039512,-0.121338, 0.044658,6.819798,0.079277
2.292097,1019.413086,56.424999,1, 1.397408,-3.632305,-1.201197, -0.256749,-0.272463,-0.487397, 0.082522,0.974584,-0.129127,0.163409, 1.931361,-6.414413,1.164590, 0.483720,10.975361,-0.109691, 0.049496,6.929563,0.078180
2.302097,1019.413086,56.424999,1, 0.899701,-3.416951,-1.282553, -0.217065,-0.282317,-0.452507, 0.083767,0.973968,-0.131270,0.164738, 1.404540,-6.495240,1.093669, 0.497765,10.910408,-0.098754, 0.054473,7.038667,0.077193
2.312097,1019.374023,56.427082,1, 0.378066,-2.857030,-1.134198, -0.181376,-0.366480,-0.433064, 0.084766,0.973301,-0.133383,0.166459, 0.824231,-6.941663,0.841539, 0.506007,10.840991,-0.090339, 0.059533,7.147077,0.076289
2.322097,1019.374023,56.427082,1, 0.023928,-2.727818,-1.335195, -0.149415,-0.395511,-0.421079, 0.085580,0.972624,-0.135475,0.168304, 0.412967,-6.940720,0.918668, 0.510137,10.771584,-0.081152, 0.064635,7.254792,0.075478
2.332097,1019.374023,56.427082,1, 1.124627,-2.440679,-0.904487, -0.100143,-0.523353,-0.409627, 0.086057,0.971858,-0.137606,0.170741, 1.462237,-7.567855,0.944659, 0.524759,10.695905,-0.071706, 0.069882,7.361751,0.074761
2.342097,1019.374023,56.427082,1, -0.866202,-3.680161,0.110070, -0.038086,-0.522287,-0.419215, 0.086240,0.971101,-0.139834,0.173124, 0.363323,-6.138880,-0.852204, 0.528393,10.634516,-0.080228, 0.075166,7.468096,0.073959
2.352099,1019.312012,56.427082,1, -2.038685,-3.756731,-0.827917, -0.042880,-0.688748,-0.490593, 0.086390,0.970135,-0.142475,0.176286, -0.939071,-5.576015,-0.424393, 0.519000,10.578745,-0.084473, 0.080357,7.573905,0.073114
2.362099,1019.312012,56.427082,1, -1.990828,2.297110,-3.498307, -0.111329,-0.581681,-0.479407, 0.086938,0.969225,-0.144953,0.178978, -3.622094,-10.703353,2.748360, 0.482779,10.471711,-0.056989, 0.085185,7.678622,0.072544
2.372099,1019.312012,56.427082,1, 1.727618,-1.316052,-2.014757, -0.105470,-0.586208,-0.480472, 0.087453,0.968300,-0.147441,0.181685, 1.299112,-8.556523,2.350964, 0.495770,10.386146,-0.033479, 0.090143,7.782484,0.072209
2.382099,1019.312012,56.427082,1, 4.828716,-23.210379,-3.029313, -0.463693,-0.421079,-0.543328, 0.089881,0.967306,-0.149833,0.183826, 10.784775,11.440741,1.865601, 0.603618,10.500553,-0.014823, 0.096179,7.887489,0.072061
2.392099,1019.266113,56.433334,1, -3.363681,-127.339348,-1.441578, 0.275659,-0.298031,0.027433, 0.088299,0.967174,-0.150087,0.185073, 37.671585,111.003761,-14.648401, 0.980334,11.610591,-0.161307, 0.105982,8.003595,0.070448
2.402100,1019.266113,56.433334,1, -3.363681,-127.339348,-1.441578, -0.601390,-0.191496,-0.163265, 0.091214,0.966604,-0.150404,0.186378, 37.897411,110.852005,-15.302197, 1.359346,12.719222,-0.314345, 0.119577,8.130800,0.067304
2.412100,1019.266113,56.433334,1, -2.883155,-96.105171,-1.922103, -0.209874,-0.251156,-0.234643, 0.092258,0.966095,-0.151457,0.187642, 28.260969,81.449883,-11.041065, 1.641955,13.533721,-0.424755, 0.135997,8.266137,0.063056
2.422100,1019.266113,56.433334,1, 0.000000,-100.910431,-1.922103, 0.250623,-0.171255,-0.120651, 0.091031,0.965958,-0.152353,0.188224, 32.513783,85.195770,-10.204954, 1.967093,14.385678,-0.526805, 0.155668,8.409994,0.057788
2.432100,1019.266113,56.433334,1, 0.000000,-100.910431,-1.922103, 0.412556,-0.141958,-0.174984, 0.089095,0.965876,-0.153651,0.188515, 32.694183,85.179939,-9.766768, 2.294035,15.237477,-0.624472, 0.178608,8.562369,0.051544
2.442103,1019.216309,56.431252,1, 0.480526,-96.105171,-0.961052, 0.492990,0.002131,-0.171255, 0.086876,0.965963,-0.154942,0.188049, 32.008038,80.323364,-9.463655, 2.614212,16.040953,-0.719137, 0.204758,8.722827,0.044350
2.452103,1019.216309,56.431252,1, 0.961052,-93.222015,-1.441578, 0.427205,-0.033292,-0.068449, 0.084851,0.966062,-0.155688,0.187848, 31.375242,77.616791,-8.137085, 2.927964,16.817120,-0.800508, 0.234038,8.890998,0.036345
2.464840,1019.216309,56.431252,1, -0.961052,-96.105171,-2.883155, 0.257548,0.196823,0.193095, 0.083230,0.966625,-0.154701,0.186486, 29.912739,81.255554,-7.647179, 3.308963,17.852072,-0.897910, 0.276184,9.118380,0.024908
2.474840,1019.115479,56.433334,1, -0.480526,-98.027275,-3.363681, 0.032759,0.361153,0.514564, 0.082871,0.967369,-0.152094,0.184928, 30.306147,83.194908,-7.299411, 3.612024,18.684021,-0.970904, 0.312304,9.305220,0.015199
2.484840,1019.115479,56.433334,1, 0.000000,-96.105171,-2.883155, -0.128108,0.607782,0.710854, 0.083295,0.968407,-0.148284,0.182378, 29.573912,81.360443,-7.654889, 3.907763,19.497625,-1.047453, 0.351382,9.500196,0.004725
2.494840,1019.115479,56.433334,1, 0.480526,-96.585693,-1.441578, -0.131038,0.829907,0.773443, 0.083838,0.969667,-0.144071,0.178776, 29.846428,81.601265,-9.221062, 4.206227,20.313639,-1.139664, 0.393444,9.703332,-0.006672
2.504840,1019.115479,56.433334,1, 0.480526,-100.910431,0.000000, -0.009322,0.817922,0.746810, 0.083804,0.970918,-0.140097,0.175128, 30.846376,85.609360,-11.295077, 4.514691,21.169733,-1.252615, 0.438591,9.915030,-0.019198
2.514840,1019.115479,56.433334,1, 0.480526,-100.910431,0.000000, 0.246895,0.884506,0.688482, 0.082620,0.972262,-0.136598,0.170947, 30.088577,85.847061,-11.328696, 4.815577,22.028204,-1.365902, 0.486747,10.135311,-0.032857
2.524840,1018.982178,56.431252,1, 1.441578,-105.235161,-1.441578, 0.495920,0.953487,0.559841, 0.080381,0.973646,-0.133904,0.166201, 31.126534,90.248085,-9.947001, 5.126842,22.930685,-1.465372, 0.538015,10.364618,-0.047511
2.534840,1018.982178,56.431252,1, 2.402629,-102.832535,-2.402629, 0.649064,0.993704,0.482603, 0.077484,0.975036,-0.131692,0.161119, 30.464489,88.133087,-8.121056, 5.431487,23.812016,-1.546582, 0.592330,10.602738,-0.062977
2.544840,1018.982178,56.431252,1, 2.402629,-102.832535,-2.402629, 0.516162,0.971066,0.604586, 0.075118,0.976397,-0.128781,0.156276, 29.793858,88.356613,-7.907524, 5.729425,24.695581,-1.625658, 0.649624,10.849694,-0.079233
2.554841,1018.982178,56.431252,1, 1.441578,-103.793587,-3.844207, 0.156606,1.085058,0.894094, 0.074352,0.977855,-0.124128,0.151210, 27.795885,90.027473,-7.117534, 6.007412,25.595945,-1.696840, 0.709704,11.105680,-0.096203
2.564841,1018.920166,56.433334,1, 1.922103,-110.520943,-3.844207, -0.314012,1.040580,1.209704, 0.075616,0.979244,-0.117585,0.146762, 28.654234,96.697075,-8.331480, 6.293954,26.562916,-1.780155, 0.772644,11.371308,-0.114005
2.574841,1018.920166,56.433334,1, 1.922103,-110.520943,-3.844207, -0.350233,1.075204,1.211302, 0.077071,0.980579,-0.110986,0.142156, 27.269056,97.005409,-9.005688, 6.566645,27.532970,-1.870212, 0.838310,11.646638,-0.132707
2.584843,1018.920166,56.433334,1, 3.363681,-111.962524,-3.363681, -0.218663,1.067213,1.148180, 0.077917,0.981860,-0.104786,0.137482, 27.746693,98.329994,-9.746443, 6.844168,28.516466,-1.967696, 0.906766,11.931860,-0.152388
2.594843,1018.920166,56.433334,1, 4.324733,-116.767784,-2.883155, 0.070313,1.024866,0.967603, 0.077442,0.983074,-0.099682,0.132788, 28.664825,102.997513,-10.745314, 7.130816,29.546442,-2.075149, 0.978074,12.227324,-0.173139
2.604843,1018.924072,56.429169,1, 5.766310,-123.495140,-1.922103, 0.294569,1.032590,0.592334, 0.076114,0.984151,-0.096564,0.127792, 30.890049,109.306908,-12.081259, 7.439716,30.639511,-2.195961, 1.052471,12.533720,-0.195099
2.614843,1018.924072,56.429169,1, 5.766310,-123.495140,-1.922103, 0.359023,1.045374,0.480206, 0.074544,0.985169,-0.094031,0.122655, 30.191874,109.496727,-11.972539, 7.741635,31.734478,-2.315687, 1.129887,12.851065,-0.218256
2.624843,1018.924072,56.429169,1, 5.285784,-123.495140,-3.363681, 0.222658,1.118883,0.471683, 0.073682,0.986141,-0.091425,0.117213, 28.721272,109.982956,-10.771871, 8.028848,32.834309,-2.423406, 1.210176,13.179408,-0.242490
2.634845,1018.924072,56.429169,1, 6.727362,-126.378296,-4.324733, -0.102007,1.226217,0.521755, 0.074438,0.987039,-0.088339,0.111402, 29.695971,112.858482,-10.346148, 8.325867,33.963120,-2.526888, 1.293451,13.519107,-0.267764
2.644847,1018.945313,56.424999,1, 6.246836,-135.508286,-4.324733, -0.503644,1.223287,0.408295, 0.077236,0.987690,-0.085585,0.105735, 30.292240,121.884583,-12.658144, 8.628850,35.182209,-2.653495, 1.379757,13.870999,-0.294304
2.654847,1018.945313,56.424999,1, 6.246836,-135.508286,-4.324733, -0.568630,1.224352,0.294036, 0.080410,0.988220,-0.083358,0.100043, 29.743183,121.897720,-13.774556, 8.926282,36.401188,-2.791240, 1.469020,14.235011,-0.322216
2.664847,1018.945313,56.424999,1, 7.207888,-141.274597,-2.883155, -0.522554,1.136994,0.090821, 0.083419,0.988597,-0.082189,0.094677, 31.670200,127.056915,-16.863165, 9.242984,37.671757,-2.959872, 1.561450,14.611729,-0.351815
2.674847,1018.945313,56.424999,1, 7.688414,-145.118805,-1.441578, -0.275126,1.333551,-0.304157, 0.085469,0.988964,-0.083004,0.088070, 33.242161,130.311462,-19.564404, 9.575405,38.974873,-3.155516, 1.657204,15.001477,-0.383370
2.684849,1018.850830,56.424999,1, 8.649465,-147.040909,-1.922103, 0.120651,1.773806,-0.639476, 0.085887,0.989488,-0.085458,0.078970, 35.005009,131.925293,-19.659056, 9.925526,40.294388,-3.352146, 1.756479,15.404502,-0.416898
2.694849,1018.850830,56.424999,1, 10.091043,-119.170410,-0.961052, -0.208542,1.561535,-1.091716, 0.088013,0.989503,-0.090102,0.070861, 32.442310,104.089577,-16.723396, 10.249949,41.335285,-3.519380, 1.858978,15.817855,-0.452092
2.704849,1018.850830,56.424999,1, 5.285784,-104.754639,1.441578, -0.425341,1.661145,-1.388416, 0.091352,0.989218,-0.096084,0.062219, 26.403622,90.043686,-18.343126, 10.513985,42.235722,-3.702811, 1.964118,16.240211,-0.489120
2.714849,1018.850830,56.424999,1, 1.922103,-98.988327,0.000000, -0.478075,1.684050,-1.606014, 0.095019,0.988683,-0.103102,0.053381, 23.055317,84.918152,-17.268408, 10.744538,43.084904,-3.875495, 2.071563,16.671061,-0.527875
2.724849,1018.839844,56.416668,1, 0.000000,-95.144119,2.883155, -0.551318,1.508801,-1.677925, 0.098963,0.987892,-0.110526,0.045406, 21.827780,80.557388,-20.463324, 10.962816,43.890476,-4.080128, 2.181192,17.109966,-0.568677
2.734849,1018.839844,56.416668,1, -4.324733,-94.183067,3.844207, -0.360621,1.686448,-1.583375, 0.102029,0.987153,-0.117423,0.036489, 18.526485,79.982201,-22.333954, 11.148081,44.690300,-4.303468, 2.292672,17.556870,-0.611711
2.744849,1018.839844,56.416668,1, -2.883155,-87.936234,3.363681, 0.073509,3.292195,-0.756664, 0.103722,0.987206,-0.119475,0.019806, 18.354361,73.691315,-21.065258, 11.331624,45.427212,-4.514120, 2.405989,18.011141,-0.656853
2.754850,1018.839844,56.416668,1, -3.363681,-79.767288,1.441578, 0.213070,3.894117,-0.112927, 0.104988,0.987447,-0.118011,0.000394, 15.292484,66.465782,-18.027393, 11.484564,46.091934,-4.694412, 2.520846,18.472107,-0.703801
2.764852,1018.839844,56.416668,1, -5.285784,-69.676247,2.402629, 0.350500,4.442505,0.526815, 0.105852,0.987702,-0.113048,-0.021473, 9.937849,57.241753,-17.156473, 11.583962,46.664467,-4.866011, 2.636709,18.938845,-0.752471
2.774854,1018.649658,56.406250,1, -2.883155,-60.546257,0.961052, 0.334520,4.935229,0.952156, 0.107058,0.987574,-0.105661,-0.045526, 9.130641,48.436367,-14.126377, 11.675287,47.148926,-5.007303, 2.753485,19.410429,-0.802554
2.784854,1018.649658,56.406250,1, -1.441578,-51.416267,0.961052, 0.152878,5.348319,1.139124, 0.109348,0.986671,-0.097100,-0.071386, 7.493801,39.515900,-12.563256, 11.750225,47.544086,-5.132936, 2.870987,19.885870,-0.853884
2.794855,1018.649658,56.406250,1, -0.961052,-42.766800,0.961052, -0.027166,5.512648,1.142054, 0.112523,0.984852,-0.088424,-0.097915, 5.374189,31.201328,-10.971281, 11.803972,47.856133,-5.242660, 2.989039,20.364479,-0.906315
2.804856,1018.649658,56.406250,1, 0.535992,-31.757542,1.287339, -0.149682,5.425556,1.026996, 0.116118,0.982190,-0.080354,-0.123950, 4.273759,20.317057,-9.210073, 11.846714,48.059322,-5.334770, 3.107518,20.845119,-0.959668
2.814856,1018.529297,56.397919,1, 2.746960,-26.474190,2.694318, -0.247694,5.345388,0.808866, 0.119940,0.978700,-0.073403,-0.149583, 4.611950,14.554615,-10.048903, 11.892834,48.204868,-5.435259, 3.226446,21.327168,-1.014021
2.824856,1018.529297,56.397919,1, 4.450650,-22.076181,1.890330, -0.225588,5.442602,0.630687, 0.123468,0.974358,-0.067195,-0.175696, 5.390052,10.211723,-8.998840, 11.946734,48.306984,-5.525247, 3.345913,21.810238,-1.069273
2.834858,1018.529297,56.397919,1, 4.110869,-18.151953,3.254239, -0.096680,5.566715,0.323067, 0.126045,0.969137,-0.062243,-0.202518, 3.676566,6.209734,-9.325390, 11.983507,48.369095,-5.618520, 3.465772,22.294025,-1.125470
2.844858,1018.529297,56.397919,1, 3.139383,-15.170495,2.751746, 0.129973,5.447662,0.037021, 0.127101,0.963355,-0.058476,-0.228854, 2.361478,3.634061,-7.833302, 12.007122,48.405434,-5.696853, 3.585844,22.778080,-1.182438
2.854858,1018.337158,56.381248,1, 0.521635,-8.336594,1.282553, 0.347304,5.400254,-0.240236, 0.126686,0.956974,-0.055783,-0.255033, 0.157727,-2.152759,-3.580371, 12.008699,48.383907,-5.732656, 3.705930,23.261919,-1.239765
2.864858,1018.337158,56.381248,1, -1.091127,-5.015356,1.909472, 0.337716,5.034307,-0.340645, 0.125999,0.950368,-0.053775,-0.279347, -1.794688,-5.190486,-2.338088, 11.990752,48.332001,-5.756037, 3.825838,23.745239,-1.297325
2.874858,1018.337158,56.381248,2, -0.210568,-0.133998,0.957129, 0.201884,4.856926,-0.355827, 0.125812,0.943334,-0.052109,-0.302620, -0.726903,-9.837238,-0.670096, 11.983483,48.233627,-5.762738, 3.945673,24.227575,-1.354953
2.884858,1018.337158,56.381248,2, 0.043071,3.479164,0.842274, 0.007990,5.088906,-0.179245, 0.126788,0.935287,-0.049724,-0.326636, -0.527018,-13.336081,0.276911, 11.978213,48.100266,-5.759969, 4.065455,24.708578,-1.412552
2.894858,1018.144287,56.375000,2, 0.315853,4.728217,0.957129, -0.118786,5.275342,-0.015714, 0.128585,0.926268,-0.046630,-0.351170, -0.379003,-14.609768,0.390045, 11.974423,47.954166,-5.756069, 4.185199,25.188120,-1.470113
2.904860,1018.144287,56.375000,2, -0.296710,7.255038,1.009771, -0.184572,5.430350,0.092685, 0.130821,0.916293,-0.043016,-0.376090, -0.777014,-16.942696,1.485673, 11.966652,47.784706,-5.741209, 4.304890,25.666063,-1.527537
2.914861,1018.144287,56.375000,2, -0.684347,9.317651,1.780260, -0.196291,5.500930,0.179245, 0.133191,0.905512,-0.038950,-0.400989, -1.435477,-19.017244,1.883862, 11.952295,47.594513,-5.722369, 4.424425,26.142056,-1.584766
2.924861,1018.144287,56.375000,2, -0.186640,12.165110,2.713461, -0.160868,5.594414,0.274860, 0.135507,0.893888,-0.034288,-0.425943, -1.551374,-22.040880,1.813581, 11.936782,47.374104,-5.704233, 4.543792,26.615797,-1.641809
2.934863,1017.918213,56.362499,2, 0.373280,12.437892,2.809174, -0.130505,5.659933,0.363284, 0.137780,0.881447,-0.029093,-0.450802, -1.126925,-22.424784,1.492905, 11.925510,47.149811,-5.689301, 4.663071,27.087389,-1.698713
2.944863,1017.918213,56.362499,2, -0.483350,12.696317,3.024528, -0.047408,5.681772,0.393646, 0.139647,0.868310,-0.023540,-0.475378, -1.614471,-22.574940,2.219453, 11.909366,46.924061,-5.667106, 4.782165,27.556629,-1.755384
2.954865,1017.918213,56.362499,2, -1.043271,12.725031,2.866601, 0.075107,5.619450,0.336384, 0.140726,0.854700,-0.017967,-0.499363, -1.586113,-22.478292,2.851301, 11.893501,46.699234,-5.638587, 4.901124,28.023714,-1.811781
2.967557,1017.918213,56.362499,2, -0.756132,13.610375,1.823331, 0.135566,5.555263,0.307886, 0.141512,0.836722,-0.010897,-0.528917, -0.163138,-23.151838,3.316788, 11.891431,46.405392,-5.596491, 5.052050,28.612692,-1.882812
2.977557,1017.634277,56.356251,2, -1.335195,13.720445,1.828116, 0.211205,5.683903,0.338781, 0.141777,0.821521,-0.004896,-0.552250, -0.143881,-23.170368,3.840417, 11.889992,46.173687,-5.558087, 5.170949,29.074429,-1.938393
2.987557,1017.634277,56.356251,2, -1.201197,13.892728,1.383051, 0.115857,5.773126,0.450643, 0.142627,0.805331,0.001369,-0.575412, 0.623935,-23.258856,3.872407, 11.896231,45.941097,-5.519363, 5.289912,29.533840,-1.993586
2.997557,1017.634277,56.356251,2, -0.827917,12.476177,1.349552, 0.104138,5.883657,0.541730, 0.143664,0.788125,0.008044,-0.598462, 0.798814,-21.952318,3.160867, 11.904219,45.721573,-5.487754, 5.408954,29.991056,-2.048464
3.007559,1017.634277,56.356251,2, -0.574277,13.691731,1.287339, -0.019975,5.789373,0.577153, 0.145176,0.770429,0.014414,-0.620610, 1.413955,-23.135206,3.127958, 11.918361,45.490173,-5.456469, 5.528162,30.446049,-2.103040
3.017559,1017.355957,56.343750,2, 1.158126,13.390235,2.297110, -0.128907,5.715864,0.581148, 0.147003,0.752241,0.020395,-0.641957, 0.935951,-23.357628,1.180816, 11.927720,45.256596,-5.444660, 5.647439,30.898615,-2.157486
3.027559,1017.355957,56.343750,2, 2.947957,12.385250,1.435694, -0.096680,5.785644,0.540132, 0.148449,0.733230,0.026359,-0.663057, 1.883915,-22.457298,-0.736278, 11.946559,45.032024,-5.452023, 5.766904,31.348934,-2.212006
3.037559,1017.355957,56.343750,2, 3.326023,11.901900,2.498107, -0.018910,5.647149,0.359555, 0.148906,0.714155,0.031795,-0.683227, 0.762208,-22.321606,-1.318081, 11.954181,44.808807,-5.465204, 5.886446,31.797022,-2.266658
3.047561,1017.355957,56.343750,2, 3.828516,11.399407,1.052842, -0.001332,5.662064,0.113460, 0.148339,0.694506,0.036399,-0.703088, 1.970561,-21.549393,-1.980545, 11.973890,44.593269,-5.485013, 6.006208,32.243042,-2.321519
3.057562,1017.355957,56.343750,2, 1.617548,11.834901,0.914058, 0.157405,5.560589,-0.157938, 0.146167,0.674836,0.040514,-0.722213, 2.190506,-21.583241,0.124860, 11.995797,44.377415,-5.483764, 6.126178,32.686859,-2.376363
3.079736,1017.055420,56.341667,2, 0.660419,11.609975,2.656033, 0.120651,5.501995,-0.305223, 0.140080,0.629880,0.048032,-0.762445, 0.556647,-21.671139,1.091428, 12.008141,43.896877,-5.459563, 6.392447,33.660229,-2.497423
3.089739,1017.055420,56.341667,2, 0.224925,12.409178,2.120041, 0.152878,5.541946,-0.280187, 0.137145,0.608681,0.051596,-0.779768, 1.401283,-22.240845,1.394398, 12.022158,43.674400,-5.445615, 6.512705,34.097103,-2.551895
3.099739,1017.024170,56.341667,2, -1.028914,11.868400,1.995614, 0.197889,5.497734,-0.212537, 0.134244,0.587209,0.055471,-0.796297, 1.756318,-21.511580,2.407325, 12.039721,43.459286,-5.421542, 6.633102,34.531696,-2.606111
3.109739,1016.649170,56.341667,2, -0.579063,11.155339,1.818545, 0.267669,5.483884,-0.111862, 0.131442,0.565367,0.059868,-0.812096, 1.684259,-20.858620,1.757062, 12.056563,43.250698,-5.403971, 6.753667,34.964203,-2.660151
3.119739,1016.649170,56.341667,2, 0.593420,12.045469,1.239482, 0.205879,5.578434,0.090555, 0.129507,0.542607,0.064602,-0.827426, 2.109672,-21.739178,0.361655, 12.077661,43.033306,-5.400355, 6.874444,35.394535,-2.714154
3.129742,1016.649170,56.341667,2, -0.349352,11.949756,1.316052, 0.153144,5.690828,0.151546, 0.127827,0.518889,0.069306,-0.842385, 2.455599,-21.528606,1.096222, 12.102224,42.817955,-5.389390, 6.995502,35.822842,-2.768064
3.139744,1016.649170,56.341667,2, -1.574477,10.667203,0.847059, 0.121982,5.631701,0.131304, 0.126061,0.494994,0.073733,-0.856537, 3.132615,-20.005821,1.771009, 12.133556,42.617855,-5.371676, 7.116862,36.249107,-2.821791
3.149744,1016.344971,56.345833,2, -0.617348,10.671989,-0.043071, 0.075640,5.588022,0.202416, 0.124632,0.470845,0.078051,-0.869875, 3.457261,-19.917057,0.297644, 12.168129,42.418686,-5.368700, 7.238544,36.673294,-2.875479
3.159744,1016.344971,56.345833,2, -0.655633,11.222338,0.770489, -0.056730,5.693225,0.284448, 0.123730,0.445749,0.081989,-0.882768, 3.056087,-20.635090,0.596626, 12.198689,42.212334,-5.362733, 7.360530,37.095417,-2.929106
3.169744,1016.344971,56.345833,2, -2.215754,10.978270,2.167897, -0.171788,5.688164,0.291906, 0.123020,0.420238,0.085367,-0.894975, 2.985994,-20.518473,2.541441, 12.228549,42.007149,-5.337319, 7.482816,37.515488,-2.982479
3.179744,1016.344971,56.345833,2, -1.775474,10.040284,2.258825, -0.164330,5.641289,0.333188, 0.122399,0.394587,0.088767,-0.906334, 2.533819,-19.699337,2.182640, 12.253887,41.810154,-5.315493, 7.605355,37.933590,-3.035634
3.189746,1016.042236,56.358334,2, -1.976471,10.179067,2.565106, -0.021041,5.644219,0.510302, 0.122199,0.368609,0.093097,-0.916804, 2.684381,-19.866390,2.383828, 12.280736,41.611450,-5.291649, 7.728187,38.349789,-3.088561
3.199747,1016.042236,56.358334,2, -1.153340,9.753145,2.000400, 0.022372,5.630103,0.585409, 0.122171,0.342395,0.097681,-0.926445, 2.487358,-19.427372,1.303150, 12.305612,41.417156,-5.278616, 7.851255,38.764000,-3.141352
3.209747,1016.042236,56.358334,2, -0.789631,10.260423,2.072184, 0.042614,5.622912,0.651195, 0.122320,0.315923,0.102388,-0.935280, 2.447155,-19.971714,0.929403, 12.330083,41.217438,-5.269322, 7.974556,39.176174,-3.194045
3.219749,1016.042236,56.358334,2, -0.248854,10.930414,1.517050, 0.057263,5.598942,0.698070, 0.122579,0.289290,0.107143,-0.943296, 2.616913,-20.529129,-0.063554, 12.356257,41.012104,-5.269958, 8.098144,39.586376,-3.246755
3.229749,1015.878418,56.381248,2, -0.200997,9.982856,2.287538, 0.089223,5.412506,0.670904, 0.122669,0.263353,0.111811,-0.950315, 2.000206,-19.837734,0.542695, 12.376260,40.813728,-5.264531, 8.221906,39.994514,-3.299401
3.239751,1015.878418,56.381248,2, 0.961915,10.327422,1.756332, 0.069248,5.306237,0.641340, 0.122615,0.237728,0.116199,-0.956531, 1.420081,-20.209328,-0.648168, 12.390464,40.611595,-5.271014, 8.345835,40.400711,-3.352121
3.249752,1015.878418,56.381248,2, 1.038485,9.863215,2.431108, 0.084429,5.321418,0.499382, 0.121767,0.211955,0.120417,-0.962159, 0.979952,-19.969860,-0.088240, 12.400265,40.411877,-5.271897, 8.469850,40.804871,-3.404846
3.259753,1015.878418,56.381248,2, 1.071985,9.360722,2.373680, 0.118786,5.161350,0.348902, 0.120171,0.186916,0.124461,-0.967023, 0.857909,-19.483658,-0.118032, 12.408845,40.217022,-5.273077, 8.593950,41.207081,-3.457582
3.269755,1015.719971,56.395832,2, 1.411765,9.202796,3.053242, 0.223457,5.027915,0.219728, 0.117858,0.162541,0.128728,-0.971144, 0.322539,-19.592623,0.353828, 12.412071,40.021057,-5.269538, 8.718096,41.607372,-3.510288
3.279755,1015.719971,56.395832,2, 2.220539,9.121440,3.603591, 0.250091,4.993291,0.164863, 0.115205,0.138288,0.132979,-0.974640, -0.553813,-19.828648,0.597957, 12.406533,39.822769,-5.263559, 8.842161,42.005600,-3.562923
3.289755,1015.719971,56.395832,2, 2.153540,8.370093,4.091727, 0.334520,4.976778,0.104671, 0.112139,0.114118,0.137506,-0.977495, -0.732305,-19.258286,1.247715, 12.399210,39.630188,-5.251082, 8.966153,42.401901,-3.615434
3.299755,1015.719971,56.395832,2, 0.349352,7.762317,3.632305, 0.553182,4.933099,0.002930, 0.108412,0.090283,0.142934,-0.979626, 0.983716,-18.222197,1.330214, 12.409047,39.447968,-5.237780, 9.090243,42.796379,-3.667812
3.309755,1015.626465,56.412498,2, -1.521835,8.652447,-0.019143, 0.788625,4.774362,-0.134234, 0.103955,0.067397,0.149282,-0.981004, 3.415918,-17.600170,-2.182640, 12.443206,39.271965,-5.259606, 9.214675,43.189098,-3.720408
3.319755,1015.626465,56.412498,2, -2.464607,9.193224,-0.914058, 0.849349,4.682209,-0.104671, 0.099631,0.044933,0.155804,-0.981724, 4.385099,-17.634979,-3.302048, 12.487057,39.095615,-5.292626, 9.339545,43.580055,-3.773334
3.329757,1015.626465,56.412498,2, -1.450050,11.351550,-2.435893, 0.514297,4.761311,0.089756, 0.096218,0.021733,0.160676,-0.982067, 3.675050,-19.318430,-5.736044, 12.523814,38.902393,-5.349998, 9.464808,43.969158,-3.826845
3.339757,1015.626465,56.412498,2, -1.186840,9.781859,-1.986043, -0.011453,5.033508,0.286313, 0.093551,-0.003223,0.163021,-0.982173, 2.880194,-18.042595,-4.990103, 12.552616,38.721966,-5.399899, 9.590335,44.356377,-3.880844
3.349757,1015.626465,56.420834,2, -1.651048,10.351351,-0.425922, -0.290041,4.979175,0.392847, 0.091388,-0.028128,0.163868,-0.981838, 3.346775,-18.982162,-3.828238, 12.586083,38.532143,-5.438182, 9.716196,44.741699,-3.935226
3.359757,1015.536621,56.420834,2, -0.569492,8.796016,0.167498, -0.518825,5.011136,0.465558, 0.089466,-0.053335,0.163493,-0.981032, 1.970195,-17.933220,-2.790911, 12.605785,38.352810,-5.466091, 9.842254,45.125229,-3.989887
3.369757,1015.536621,56.420834,2, -0.937986,8.695517,0.866202, -0.576887,5.072926,0.477276, 0.087477,-0.078846,0.162752,-0.979615, 2.337577,-17.987221,-2.201320, 12.629161,38.172939,-5.488104, 9.968545,45.506958,-4.044767
3.379758,1015.536621,56.420834,2, -1.368695,8.930014,0.918844, -0.487397,5.039367,0.470352, 0.085460,-0.104100,0.162331,-0.977502, 2.721695,-18.135281,-2.382964, 12.656381,37.991570,-5.511936, 10.095121,45.886913,-4.099892
3.389758,1015.536621,56.420834,2, -0.502493,8.398807,1.086341, -0.421079,5.081715,0.500448, 0.083534,-0.129486,0.162130,-0.974665, 1.797238,-17.862976,-1.956517, 12.674353,37.812939,-5.531501, 10.221865,46.265041,-4.155207
3.399760,1015.529785,56.437500,2, -0.521635,8.250452,1.229911, -0.428270,5.182124,0.534805, 0.081633,-0.155311,0.161806,-0.971100, 1.786429,-17.760897,-1.839382, 12.692221,37.635296,-5.549899, 10.348812,46.641468,-4.210717
3.409760,1015.529785,56.437500,2, -1.186840,8.240881,2.263610, -0.346505,5.131520,0.545459, 0.079834,-0.180755,0.161740,-0.966849, 2.734140,-17.900705,-1.202143, 12.719563,37.456287,-5.561920, 10.476007,47.016029,-4.266336
3.419760,1015.529785,56.437500,2, -0.646062,8.054241,2.254039, -0.190165,5.031111,0.530544, 0.078133,-0.205521,0.162298,-0.961934, 2.205383,-17.828808,-1.067708, 12.741616,37.278000,-5.572597, 10.603424,47.388809,-4.322062
3.429760,1015.529785,56.437500,2, -0.703490,7.858029,2.163112, -0.134234,4.967722,0.503644, 0.076362,-0.229808,0.163025,-0.956442, 2.184775,-17.597885,-1.198378, 12.763464,37.102020,-5.584581, 10.731059,47.759830,-4.377908
3.439760,1015.315918,56.437500,2, 0.105284,7.791030,1.890330, -0.031960,4.805257,0.530544, 0.074923,-0.253163,0.164049,-0.950465, 1.328062,-17.631748,-1.130805, 12.776745,36.925701,-5.595889, 10.858827,48.129089,-4.433867
3.449760,1015.315918,56.437500,2, 0.181855,7.752745,2.885744, 0.078037,4.829227,0.479141, 0.073316,-0.276400,0.165574,-0.943830, 1.786924,-17.877121,-0.360249, 12.794614,36.746929,-5.599492, 10.986773,48.496559,-4.489862
3.459760,1015.315918,56.437500,2, 0.296710,7.460821,3.393022, 0.121982,4.764241,0.392581, 0.071372,-0.299083,0.167306,-0.936732, 1.992561,-17.761173,0.098171, 12.814540,36.569317,-5.598510, 11.114918,48.862251,-4.545847
3.469762,1015.315918,56.437500,2, 1.105484,8.001599,2.287538, 0.195758,4.837217,0.384325, 0.069397,-0.321904,0.169326,-0.928920, 0.715441,-18.152163,-0.557204, 12.821695,36.387760,-5.604083, 11.243160,49.226200,-4.601899
3.480171,1015.087891,56.431252,2, 0.062213,6.786045,2.900101, 0.338248,4.877168,0.336650, 0.067271,-0.345550,0.172103,-0.920028, 1.897197,-16.927315,-0.390642, 12.841443,36.211563,-5.608149, 11.376827,49.603127,-4.660275
3.490171,1015.087891,56.431252,2, 0.320638,7.456035,2.402394, 0.461296,4.536789,0.287911, 0.065471,-0.366421,0.175208,-0.911457, 1.360525,-17.471828,-0.922518, 12.855048,36.036846,-5.617374, 11.505378,49.963493,-4.716448
3.500171,1015.087891,56.431252,2, 1.091127,7.561319,1.603191, 0.511634,4.586860,0.305223, 0.063764,-0.387325,0.178435,-0.902262, 0.227007,-17.537748,-1.050282, 12.857318,35.861469,-5.627877, 11.633951,50.322109,-4.772727
3.510171,1015.087891,56.431252,2, 0.354138,7.527820,0.799203, 0.501513,4.581000,0.283649, 0.061911,-0.407979,0.181561,-0.892613, 0.083314,-17.090101,-2.089822, 12.858151,35.690567,-5.648776, 11.762532,50.679016,-4.829215
3.520171,1014.903320,56.424999,2, 0.952343,7.374679,-0.397209, 0.483136,4.487250,0.249824, 0.059922,-0.427977,0.184550,-0.882716, -1.290332,-16.767532,-2.307155, 12.845248,35.522892,-5.671847, 11.890985,51.034245,-4.885933
3.530171,1014.903320,56.424999,2, 0.550349,8.015956,-0.856630, 0.357425,4.417736,0.184305, 0.057410,-0.447431,0.187011,-0.872661, -1.551997,-17.120096,-3.063950, 12.829728,35.351692,-5.702487, 12.019281,51.387760,-4.942958
3.540171,1014.903320,56.424999,2, -0.062213,7.910672,-0.708275, 0.193361,4.329844,0.076705, 0.054115,-0.466233,0.188882,-0.862568, -1.204127,-16.894091,-3.375434, 12.817687,35.182751,-5.736241, 12.147458,51.739586,-5.000320
3.550171,1014.903320,56.424999,2, -0.148355,8.015956,-0.497707, 0.051137,4.311468,-0.006925, 0.050120,-0.484698,0.190242,-0.852271, -1.136265,-17.024227,-3.336404, 12.806324,35.012508,-5.769605, 12.275521,52.089710,-5.058016
3.560171,1014.786621,56.416668,2, 0.282353,7.982456,-0.928415, -0.106269,4.083217,0.007990, 0.046003,-0.502030,0.190753,-0.842297, -1.850555,-16.994278,-3.092830, 12.787819,34.842567,-5.800533, 12.403399,52.438137,-5.116022
3.570171,1014.786621,56.416668,2, -1.076770,7.446464,-0.267996, -0.202150,4.307206,0.002663, 0.041388,-0.520101,0.190841,-0.831483, -0.711191,-16.323183,-3.701597, 12.780707,34.679337,-5.837549, 12.531206,52.784931,-5.174397
3.580172,1014.432373,56.400002,2, -0.918844,6.599405,1.856830, -0.386189,4.394298,0.270599, 0.037305,-0.538581,0.189395,-0.820165, 1.107389,-16.172169,-2.467791, 12.791782,34.517597,-5.862229, 12.659137,53.130142,-5.233025
3.590172,1014.432373,56.400002,2, -0.009571,5.819345,0.617348, -0.210406,4.658771,0.372606, 0.033845,-0.557929,0.188346,-0.807526, -0.337195,-15.361090,-1.809245, 12.788410,34.363987,-5.880322, 12.787021,53.473782,-5.291828
3.600172,1014.432373,56.400002,2, -0.330210,6.355337,1.359123, -0.013850,4.444636,0.436793, 0.031376,-0.576148,0.187777,-0.794865, 0.313073,-15.969314,-2.064520, 12.791541,34.204292,-5.900967, 12.914936,53.815826,-5.350838
3.610174,1014.432373,56.400002,2, 0.330210,7.020542,1.110270, -0.014915,4.523738,0.462628, 0.028916,-0.594416,0.187046,-0.781568, -0.296490,-16.698374,-1.742750, 12.788575,34.037273,-5.918398, 13.042848,54.156269,-5.410034
3.620175,1014.285645,56.389584,2, 0.062213,6.417550,1.234696, 0.021840,4.514417,0.486066, 0.026651,-0.612356,0.186291,-0.767859, -0.043611,-16.098684,-1.764552, 12.788139,33.876270,-5.936045, 13.170742,54.495064,-5.469400
3.630175,1014.285645,56.389584,2, 0.397209,6.398408,1.335195, 0.057795,4.594851,0.457834, 0.024299,-0.630251,0.185674,-0.753472, -0.064234,-16.195896,-1.430171, 12.787497,33.714310,-5.950347, 13.298617,54.832207,-5.528903
3.640175,1014.285645,56.389584,2, -0.124427,5.943771,1.268196, 0.098278,4.493642,0.386722, 0.021888,-0.647366,0.185324,-0.738982, 0.009798,-15.613349,-1.796366, 12.787595,33.558178,-5.968311, 13.426494,55.167789,-5.588587
3.650175,1014.285645,56.389584,2, 0.023928,6.455835,1.105484, 0.121450,4.489381,0.354495, 0.019426,-0.664103,0.185070,-0.724114, -0.336923,-16.089066,-1.819390, 12.784225,33.397285,-5.986505, 13.554336,55.501762,-5.648452
3.660175,1014.125244,56.381248,2, -0.248854,6.029913,0.626920, 0.147817,4.424128,0.325730, 0.016997,-0.680243,0.184907,-0.709078, -0.744427,-15.501401,-1.955290, 12.776781,33.242271,-6.006057, 13.682103,55.834187,-5.708512
3.670175,1014.125244,56.381248,2, 0.177069,6.173482,-0.023928, 0.140626,4.330377,0.325730, 0.014623,-0.695724,0.184622,-0.694025, -1.489429,-15.599436,-1.536756, 12.761887,33.086277,-6.021425, 13.809722,56.165051,-5.768726
3.680175,1014.125244,56.381248,2, 0.703490,6.412765,0.167498, 0.074574,4.237426,0.306554, 0.012032,-0.710547,0.184083,-0.679038, -1.403353,-16.016842,-1.050079, 12.747853,32.926109,-6.031926, 13.937201,56.494312,-5.829046
3.690175,1014.125244,56.381248,2, 0.842274,6.297909,0.076570, 0.028764,4.203601,0.299097, 0.009278,-0.724934,0.183330,-0.663910, -1.479313,-15.931355,-0.818976, 12.733060,32.766796,-6.040115, 14.064531,56.821980,-5.889447
3.700175,1014.125244,56.381248,2, 1.593620,5.886344,-0.617348, -0.048207,4.190284,0.279388, 0.006188,-0.738941,0.182311,-0.648607, -1.985058,-15.602420,0.175938, 12.713209,32.610771,-6.038356, 14.191664,57.148087,-5.949830
3.710175,1013.943848,56.375000,2, 1.765903,5.723632,0.244068, -0.095615,4.169243,0.204547, 0.002696,-0.752490,0.181335,-0.633144, -1.075693,-15.696150,0.295064, 12.702453,32.453808,-6.035405, 14.318688,57.472626,-6.010184
3.720175,1013.943848,56.375000,2, 1.057628,4.934000,0.263210, -0.088690,4.179098,0.111063, -0.001075,-0.765656,0.180653,-0.617362, -0.940347,-14.768266,-0.154744, 12.693049,32.306126,-6.036952, 14.445619,57.795689,-6.070554
3.730175,1013.943848,56.375000,2, 0.693919,5.379065,1.105484, -0.096947,4.072563,-0.020242, -0.005187,-0.778049,0.180372,-0.601731, -0.364042,-15.274104,-0.778047, 12.689409,32.153385,-6.044733, 14.572513,58.117222,-6.131001
3.740177,1013.943848,56.375000,2, 0.516850,5.675775,0.057428, -0.125179,4.074960,-0.069248, -0.009557,-0.790083,0.180121,-0.585863, -1.497530,-15.266766,-0.649912, 12.674431,32.000687,-6.051233, 14.699283,58.437294,-6.191525
3.750177,1013.734863,56.366669,2, -0.248854,5.417350,0.483350, -0.075373,4.044598,-0.089756, -0.013758,-0.801684,0.180025,-0.569830, -1.280539,-14.912066,-1.389833, 12.661626,31.851566,-6.065132, 14.825899,58.755810,-6.252177
3.760177,1013.734863,56.366669,2, 0.334995,4.943571,0.593420, -0.047408,4.029683,-0.114259, -0.017898,-0.812895,0.180034,-0.553597, -0.906716,-14.652915,-0.767214, 12.652558,31.705038,-6.072804, 14.952425,59.072861,-6.312905
3.770177,1013.734863,56.366669,2, 0.842274,4.689932,0.143569, -0.052468,4.194812,-0.072710, -0.022084,-0.824257,0.179770,-0.536468, -1.072145,-14.450806,-0.043077, 12.641837,31.560530,-6.073235, 15.078843,59.388466,-6.373637
3.780179,1013.734863,56.366669,2, 0.368495,5.273781,0.947558, -0.037021,4.127961,-0.044478, -0.026062,-0.835111,0.179359,-0.519367, -0.763539,-15.051508,-0.864956, 12.634200,31.409985,-6.081886, 15.205211,59.702629,-6.434468
3.790179,1013.583008,56.358334,2, -0.047856,5.407779,0.071785, 0.054599,4.068568,0.015448, -0.029437,-0.845524,0.178869,-0.502225, -1.756068,-14.861788,-0.778990, 12.616639,31.261366,-6.089676, 15.331377,60.015244,-6.495365
3.800181,1013.583008,56.358334,2, 0.904487,5.268995,-0.526421, 0.013583,4.023291,0.006658, -0.032956,-0.855465,0.178247,-0.485101, -1.784755,-14.854945,0.424742, 12.598788,31.112787,-6.085428, 15.457390,60.326435,-6.556231
3.810181,1013.583008,56.358334,2, 0.200997,5.082355,0.507278, -0.029563,3.922615,-0.024503, -0.036631,-0.864787,0.177599,-0.468253, -1.231096,-14.725468,-0.641381, 12.586477,30.965532,-6.091842, 15.583255,60.636089,-6.617150
3.820181,1013.583008,56.358334,2, 0.478565,5.297709,0.191426, -0.070313,3.831528,-0.024237, -0.040387,-0.873564,0.176805,-0.451659, -1.428027,-14.929670,-0.200518, 12.572197,30.816236,-6.093847, 15.708977,60.944252,-6.678088
3.830181,1013.434326,56.352081,2, -0.870987,4.972285,0.200997, -0.136897,3.748164,-0.059660, -0.044426,-0.881794,0.175969,-0.435318, -2.071177,-14.260661,-1.178522, 12.551485,30.673630,-6.105632, 15.834492,61.250988,-6.739144
3.840182,1013.434326,56.352081,2, 0.741775,4.579862,-0.110070, -0.104671,3.805160,-0.048207, -0.048332,-0.889851,0.175076,-0.418543, -1.256014,-14.259224,0.358832, 12.538923,30.531023,-6.102043, 15.959893,61.556328,-6.800171
3.850182,1013.434326,56.352081,2, 0.081356,5.412565,1.473979, -0.149682,3.962033,0.011985, -0.052432,-0.897942,0.173718,-0.400968, -0.831345,-15.228226,-1.176225, 12.530610,30.378740,-6.113805, 16.085199,61.860115,-6.861309
3.860182,1013.434326,56.352081,2, 0.014357,4.613362,0.823131, -0.159003,3.782788,0.090022, -0.056241,-0.905401,0.171972,-0.384075, -1.070118,-14.313723,-0.704410, 12.519909,30.235603,-6.120850, 16.210398,62.162472,-6.922518
3.870182,1013.348145,56.345833,2, 0.220140,4.398008,1.062413, -0.145420,3.799834,0.085761, -0.059992,-0.912566,0.170205,-0.366954, -0.721924,-14.225269,-0.684542, 12.512690,30.093351,-6.127695, 16.335526,62.463406,-6.983795
3.880182,1013.348145,56.345833,2, -0.258425,4.264010,1.349552, -0.100409,3.660805,0.053534, -0.063457,-0.919145,0.168650,-0.350291, -0.851693,-14.041366,-1.185835, 12.504172,29.952938,-6.139554, 16.460567,62.762936,-7.045190
3.890182,1013.348145,56.345833,2, -0.258425,4.182654,1.105484, -0.048473,3.636303,0.055931, -0.066637,-0.925393,0.167127,-0.333581, -1.008301,-13.909016,-0.965458, 12.494089,29.813848,-6.149208, 16.585508,63.061073,-7.106682
3.900182,1013.348145,56.345833,2, 0.019143,4.847859,0.976272, -0.010653,3.579573,0.073775, -0.069544,-0.931273,0.165548,-0.316999, -1.140358,-14.575232,-0.639758, 12.482685,29.668097,-6.155606, 16.710335,63.357754,-7.168238
3.910182,1013.325684,56.341667,2, 0.062213,4.579862,1.402194, 0.016247,3.533230,0.111329, -0.072206,-0.936826,0.163801,-0.300524, -0.800338,-14.436492,-0.929093, 12.474682,29.523731,-6.164896, 16.835081,63.652992,-7.229887
3.920182,1013.138184,56.341667,2, 1.105484,4.187440,0.799203, 0.016779,3.511390,0.137164, -0.074785,-0.942075,0.161891,-0.284066, -0.177671,-14.203465,0.162064, 12.472905,29.381697,-6.163276, 16.959810,63.946808,-7.291520
3.930182,1013.138184,56.341667,2, 0.880559,3.651447,0.866202, 0.048740,3.436283,0.143289, -0.077123,-0.946951,0.159977,-0.267853, -0.129999,-13.658281,-0.042773, 12.471605,29.245113,-6.163703, 17.084526,64.239258,-7.353157
3.940182,1013.138184,56.341667,2, 1.804188,4.182654,-0.043071, 0.041549,3.461585,0.131837, -0.079507,-0.951566,0.158049,-0.251442, 0.041067,-14.187422,1.246220, 12.472016,29.103239,-6.151241, 17.209246,64.530289,-7.414669
3.950184,1013.138184,56.341667,2, 0.244068,4.029513,-0.047856, 0.072976,3.404855,0.102007, -0.081711,-0.955819,0.156279,-0.235186, -1.173830,-13.637427,0.491095, 12.460276,28.966837,-6.146329, 17.333874,64.820015,-7.476145
3.960185,1013.000000,56.335419,2, 0.942772,3.885944,-1.430908, 0.108399,3.319361,0.065253, -0.083698,-0.959686,0.154717,-0.219231, -1.054605,-13.369891,2.055097, 12.449729,28.833124,-6.125776, 17.458384,65.108376,-7.537409
3.970185,1013.000000,56.335419,2, 1.421337,4.268796,-1.091127, 0.061790,3.510325,-0.013051, -0.086119,-0.963401,0.153354,-0.202301, -0.568445,-13.932402,2.020674, 12.444044,28.693800,-6.105569, 17.582825,65.395317,-7.598464
3.982679,1013.000000,56.335419,2, -0.239282,4.627719,-0.311067, -0.126244,3.329748,-0.105203, -0.090182,-0.967231,0.152003,-0.182283, -1.826389,-14.010609,0.745280, 12.421226,28.518751,-6.096258, 17.738016,65.751633,-7.674631
3.992679,1013.000000,56.335419,2, 0.478565,3.866801,-1.057628, -0.196823,3.409650,-0.132636, -0.093833,-0.970008,0.150906,-0.165857, -1.132318,-13.308339,1.658698, 12.409903,28.385668,-6.079671, 17.862116,66.035492,-7.735428
4.002679,1012.848633,56.335419,2, -1.229911,4.235296,-0.445065, -0.233578,3.276214,-0.204014, -0.097594,-0.972330,0.150144,-0.150026, -2.596543,-13.342057,0.634684, 12.383937,28.252247,-6.073324, 17.985954,66.318016,-7.796161
4.012679,1012.848633,56.335419,2, -1.359123,5.158926,0.387637, -0.330791,3.087914,-0.215467, -0.101670,-0.974205,0.149419,-0.135140, -2.802181,-14.362037,0.048992, 12.355915,28.108627,-6.072834, 18.109514,66.599106,-7.856890
4.022679,1012.848633,56.335419,2, -1.186840,4.445864,0.392423, -0.342510,2.952348,-0.133968, -0.105624,-0.975818,0.148322,-0.120932, -2.420113,-13.738794,0.067485, 12.331714,27.971239,-6.072160, 18.232832,66.878815,-7.917611
4.032680,1012.848633,56.335419,2, -0.397209,4.163511,-0.196211, -0.342510,3.145443,-0.004528, -0.109617,-0.977414,0.146458,-0.105821, -1.694164,-13.538217,0.855294, 12.314771,27.835844,-6.063606, 18.355991,67.157204,-7.978253
4.042680,1012.706055,56.329166,2, -1.617548,4.110869,-0.052642, -0.409094,3.128397,0.042880, -0.113871,-0.978755,0.144299,-0.090843, -2.777353,-13.202522,0.518161, 12.286997,27.703819,-6.058424, 18.478861,67.434242,-8.038837
4.052683,1012.706055,56.329166,2, -0.641276,3.957729,-0.574277, -0.380330,3.055954,0.127043, -0.117867,-0.979902,0.141747,-0.076220, -1.845200,-13.183046,1.263130, 12.268539,27.571949,-6.045789, 18.601583,67.710045,-8.099314
4.062685,1012.706055,56.329166,2, -1.115055,4.369294,-0.358923, -0.360354,3.137453,0.196024, -0.121767,-0.980902,0.138782,-0.061207, -2.349438,-13.498620,1.143534, 12.245040,27.436935,-6.034351, 18.724058,67.984467,-8.159669
4.072685,1012.706055,56.329166,2, -1.584049,4.278367,-0.100499, -0.402702,3.162755,0.229050, -0.125851,-0.981658,0.135592,-0.046107, -2.713331,-13.362137,0.903062, 12.217907,27.303314,-6.025321, 18.846237,68.257500,-8.219922
4.082685,1012.438965,56.325001,2, -0.038285,4.163511,-0.521635, -0.473814,3.062346,0.330525, -0.130161,-0.982171,0.131917,-0.031600, -1.164482,-13.536207,1.529045, 12.206263,27.167952,-6.010030, 18.968300,68.529182,-8.280023
4.092685,1012.438965,56.325001,2, -0.081356,4.120441,-0.559920, -0.509237,3.085783,0.384325, -0.134620,-0.982458,0.127925,-0.017029, -1.132707,-13.471617,1.605753, 12.194936,27.033236,-5.993973, 19.090250,68.799515,-8.339962
4.102687,1012.438965,56.325001,2, -0.358923,4.106084,0.885344, -0.614174,3.172343,0.440522, -0.139612,-0.982466,0.123555,-0.002130, -1.374109,-13.783072,0.259540, 12.181192,26.895378,-5.991377, 19.212086,69.068520,-8.399888
4.112689,1012.438965,56.325001,2, -0.789631,3.574877,0.043071, -0.589671,3.188057,0.409094, -0.144455,-0.982210,0.119297,0.012883, -1.593932,-12.954033,0.976946, 12.165250,26.765812,-5.981606, 19.333763,69.336235,-8.459716
4.122689,1012.335938,56.325001,2, -0.784846,3.455236,0.224925, -0.463427,3.182996,0.345439, -0.148633,-0.981748,0.115316,0.027987, -1.536411,-12.896637,0.832271, 12.149886,26.636845,-5.973283, 19.455261,69.602600,-8.519448
4.132689,1012.335938,56.325001,2, -1.215554,3.962514,0.004786, -0.460231,3.163021,0.336917, -0.152744,-0.981031,0.111361,0.042993, -1.995235,-13.205172,1.282122, 12.129933,26.504793,-5.960462, 19.576561,69.867645,-8.579053
4.142691,1012.335938,56.325001,2, -0.244068,3.952943,0.086142, -0.459432,3.196846,0.380862, -0.156840,-0.980075,0.107135,0.058124, -1.007572,-13.443437,1.202765, 12.119856,26.370333,-5.948431, 19.697784,70.131401,-8.638549
4.152691,1012.335938,56.325001,2, -0.363709,3.608376,0.703490, -0.418150,3.180599,0.416818, -0.160693,-0.978918,0.102706,0.073151, -1.116860,-13.280972,0.569907, 12.108687,26.237522,-5.942732, 19.818871,70.393776,-8.697976
4.162691,1012.214600,56.327084,2, 1.143769,3.689732,0.349352, -0.393646,3.206168,0.482337, -0.164421,-0.977546,0.097899,0.088244, 0.433362,-13.583889,0.764316, 12.113021,26.101683,-5.935089, 19.940001,70.654793,-8.757327
4.172691,1012.214600,56.327084,2, 0.641276,3.527021,0.598206, -0.364083,3.255707,0.500714, -0.167992,-0.975921,0.092923,0.103555, -0.040121,-13.396298,0.563162, 12.112619,25.967720,-5.929458, 20.061127,70.914467,-8.816622
4.182691,1012.214600,56.327084,2, 0.727418,3.172883,0.354138, -0.291107,3.203238,0.492990, -0.171134,-0.974118,0.087965,0.118621, 0.188247,-13.008816,0.654448, 12.114502,25.837631,-5.922913, 20.182272,71.172844,-8.875851
4.192691,1012.214600,56.327084,2, 1.124627,2.694318,0.114855, -0.227985,3.099367,0.395777, -0.173821,-0.972139,0.083510,0.133263, 0.723258,-12.570894,0.607956, 12.121735,25.711922,-5.916833, 20.303490,71.429962,-8.935019
4.202691,1012.056152,56.318748,2, 1.277767,3.335595,0.229711, -0.210406,3.043702,0.323866, -0.176310,-0.969949,0.079421,0.147672, 0.793462,-13.228723,0.683427, 12.129669,25.579634,-5.909999, 20.424786,71.685760,-8.994119
4.212691,1012.056152,56.318748,2, 1.301695,3.828516,1.182054, -0.209075,2.875643,0.229050, -0.178617,-0.967631,0.075922,0.161317, 0.475969,-13.992012,0.000999, 12.134429,25.439714,-5.909989, 20.546129,71.940155,-9.053219
4.222691,1012.056152,56.318748,2, 1.607977,3.345166,1.201197, -0.216000,2.812521,0.140360, -0.180825,-0.965127,0.072897,0.174701, 0.796656,-13.613380,-0.296379, 12.142396,25.303581,-5.912953, 20.667553,72.193192,-9.112349
4.232691,1012.056152,56.318748,2, 2.163112,2.656033,1.043271, -0.190697,2.723298,0.038353, -0.182754,-0.962500,0.070410,0.187722, 1.407609,-13.039335,-0.621449, 12.156472,25.173187,-5.919168, 20.789118,72.444923,-9.171540
4.242693,1012.056152,56.318748,2, 2.780460,2.775674,1.024128, -0.157672,2.720901,-0.037820, -0.184419,-0.959698,0.068247,0.200780, 1.951895,-13.271593,-0.814850, 12.175995,25.040445,-5.927318, 20.910902,72.695381,-9.230825
4.252693,1011.950928,56.320831,2, 2.143969,2.541178,1.517050, -0.094283,2.715575,-0.129706, -0.185650,-0.956752,0.066454,0.213879, 1.149260,-13.088251,-1.123251, 12.187488,24.909563,-5.938550, 21.032778,72.944473,-9.290211
4.262695,1011.950928,56.320831,2, 1.990828,2.995814,1.684547, -0.032759,2.603979,-0.279920, -0.186357,-0.953762,0.065405,0.226568, 0.879529,-13.533496,-1.052730, 12.196284,24.774200,-5.949080, 21.154764,73.192268,-9.349713
4.272695,1011.950928,56.320831,2, 1.564906,2.890530,2.306681, 0.054599,2.542988,-0.405898, -0.186453,-0.950720,0.064904,0.239072, 0.169409,-13.550046,-1.441644, 12.197978,24.638700,-5.963496, 21.276745,73.438652,-9.409348
4.282695,1011.950928,56.320831,2, 2.110470,2.311467,1.670190, 0.103872,2.516088,-0.490061, -0.186175,-0.947572,0.064758,0.251503, 0.922223,-12.929381,-1.407311, 12.207200,24.509407,-5.977569, 21.398817,73.683746,-9.469124
4.292696,1011.812988,56.320831,2, 1.813760,2.359323,1.971686, 0.211738,2.542189,-0.540665, -0.185299,-0.944317,0.064681,0.264099, 0.457564,-13.005309,-1.516171, 12.211776,24.379341,-5.992732, 21.520947,73.927567,-9.529058
4.302696,1011.812988,56.320831,2, 1.086341,2.766103,1.832902, 0.357691,2.481198,-0.598193, -0.183607,-0.941100,0.064729,0.276462, -0.142338,-13.172892,-0.913681, 12.210352,24.247612,-6.001869, 21.643049,74.170044,-9.589076
4.312696,1011.812988,56.320831,2, 1.426122,3.249453,1.497907, 0.391249,2.515822,-0.644536, -0.181674,-0.937692,0.064906,0.288994, 0.274415,-13.591078,-0.659100, 12.213096,24.111702,-6.008460, 21.765181,74.411163,-9.649160
4.322697,1011.812988,56.320831,2, 0.985843,2.388037,1.741975, 0.475146,2.456961,-0.638144, -0.179306,-0.934287,0.064974,0.301224, -0.254427,-12.761963,-0.952187, 12.210551,23.984070,-6.017982, 21.887299,74.651031,-9.709346
4.332697,1011.672363,56.314583,2, 2.325824,2.593820,1.426122, 0.516428,2.595190,-0.555579, -0.176884,-0.930576,0.064459,0.313986, 0.958937,-13.165093,-1.402908, 12.220140,23.852419,-6.032012, 22.009501,74.889557,-9.769666
4.342697,1011.672363,56.314583,2, 0.086142,2.828316,1.818545, 0.534539,2.624487,-0.544393, -0.174371,-0.926666,0.063826,0.326821, -1.087149,-12.971119,-0.337720, 12.209269,23.722708,-6.035388, 22.131594,75.126785,-9.830020
4.352697,1011.672363,56.314583,2, 0.435494,2.555535,0.985843, 0.576354,2.653785,-0.567298, -0.171604,-0.922562,0.063193,0.339764, -0.307913,-12.561994,-0.044843, 12.206189,23.597088,-6.035837, 22.253656,75.362755,-9.890378
4.362697,1011.672363,56.314583,2, -0.253639,2.871387,1.540978, 0.666642,2.746736,-0.555047, -0.168436,-0.918197,0.062257,0.353085, -1.206671,-12.841938,0.104223, 12.194122,23.468668,-6.034794, 22.375597,75.597443,-9.950726
4.372698,1011.523682,56.310417,2, 0.095713,3.416951,1.507478, 0.707924,2.691871,-0.450909, -0.165211,-0.913809,0.060804,0.366009, -0.935792,-13.421446,0.100412, 12.184764,23.334440,-6.033790, 22.497458,75.830811,-10.011069
4.382701,1011.523682,56.310417,2, -0.559920,3.062813,1.670190, 0.685286,2.700660,-0.310017, -0.162317,-0.909247,0.058729,0.378781, -1.528162,-12.976335,0.312403, 12.169477,23.204638,-6.030665, 22.619188,76.062927,-10.071394
4.392701,1011.523682,56.310417,2, -1.038485,2.675176,1.201197, 0.692477,2.529671,-0.256483, -0.159411,-0.904864,0.056526,0.390659, -1.526216,-12.386028,0.831886, 12.154215,23.080778,-6.022346, 22.740730,76.293732,-10.131618
4.402701,1011.523682,56.310417,2, -0.449851,3.038885,0.430708, 0.713517,2.534199,-0.197622, -0.156500,-0.900348,0.054001,0.402450, -0.533619,-12.680553,1.036778, 12.148879,22.953972,-6.011978, 22.862219,76.523270,-10.191737
4.412701,1011.375977,56.302082,2, -0.995414,3.354737,0.641276, 0.671969,2.609040,-0.112927, -0.153938,-0.895512,0.051111,0.414428, -1.013425,-12.915729,1.399617, 12.138744,22.824814,-5.997982, 22.983606,76.751518,-10.251717
4.422702,1011.375977,56.302082,2, -0.425922,3.282953,0.382852, 0.601123,2.551777,-0.050870, -0.151779,-0.890597,0.048124,0.426011, -0.422318,-12.918707,1.112876, 12.134521,22.695614,-5.986852, 23.104963,76.978500,-10.311591
4.432703,1011.375977,56.302082,2, -0.411565,3.134598,-0.320638, 0.538534,2.633276,0.063921, -0.150137,-0.885331,0.044690,0.437781, 0.164697,-12.627403,1.452750, 12.136168,22.569326,-5.972323, 23.226337,77.204216,-10.371321
4.442703,1011.375977,56.302082,2, -1.119841,2.904887,0.052642, 0.455969,2.538993,0.119053, -0.148934,-0.880069,0.041255,0.448996, -0.529199,-12.352897,1.711278, 12.130876,22.445797,-5.955211, 23.347647,77.428673,-10.430873
4.452703,1011.256592,56.304169,2, -0.124427,3.158526,-0.564706, 0.389385,2.587200,0.165129, -0.148113,-0.874509,0.037724,0.460299, 0.611863,-12.665109,1.327331, 12.136994,22.319145,-5.941937, 23.469017,77.651863,-10.490293
4.462706,1011.256592,56.304169,2, -0.512064,3.005385,-0.129212, 0.308685,2.576014,0.222924, -0.147749,-0.868775,0.034127,0.471420, 0.064318,-12.542463,1.348665, 12.137638,22.193684,-5.928447, 23.590429,77.873863,-10.549595
4.472706,1011.256592,56.304169,2, 0.047856,3.062813,-0.186640, 0.223457,2.519284,0.302026, -0.147908,-0.862983,0.030425,0.482140, 0.458511,-12.696304,0.924055, 12.142223,22.066721,-5.919206, 23.711851,78.094528,-10.608787
4.483069,1011.256592,56.304169,2, 0.736989,3.091527,-0.445065, 0.146219,2.540058,0.343042, -0.148499,-0.856728,0.026576,0.493215, 1.069104,-12.796755,0.459562, 12.153302,21.934109,-5.914443, 23.837795,78.321831,-10.670078
4.493070,1011.131348,56.302082,2, 0.660419,2.708675,-0.028714, 0.064187,2.482530,0.353430, -0.149414,-0.850632,0.023058,0.503557, 0.650925,-12.509511,0.203076, 12.159812,21.809002,-5.912413, 23.959406,78.539940,-10.729208
4.503070,1011.131348,56.302082,2, 0.665205,2.809174,-0.497707, 0.018910,2.441514,0.322002, -0.150414,-0.844472,0.019816,0.513664, 1.088477,-12.494607,0.410244, 12.170697,21.684055,-5.908310, 24.081114,78.756783,-10.788291
4.513070,1011.131348,56.302082,2, 1.186840,2.550749,-0.181855, 0.001065,2.395171,0.239970, -0.151252,-0.838284,0.016997,0.523560, 1.027357,-12.417482,-0.269622, 12.180971,21.559881,-5.911006, 24.202923,78.972382,-10.847401
4.523070,1011.131348,56.302082,2, 1.033699,3.072384,-0.267996, -0.061524,2.267329,0.193894, -0.152201,-0.832264,0.014630,0.532877, 1.108657,-12.863859,0.017372, 12.192058,21.431242,-5.910833, 24.324842,79.186691,-10.906509
4.533070,1011.131348,56.302082,2, 1.933401,2.545963,-0.588634, -0.119319,2.262535,0.160069, -0.153279,-0.826103,0.012559,0.542127, 1.696138,-12.451910,-0.829911, 12.209019,21.306723,-5.919132, 24.446932,79.399757,-10.965701
4.543072,1010.998291,56.310417,2, 1.607977,2.445465,-0.354138, -0.143289,2.251881,0.081233, -0.154223,-0.819841,0.010885,0.551324, 1.323625,-12.351397,-0.678450, 12.222258,21.183184,-5.925918, 24.569180,79.611633,-11.024972
4.553072,1010.998291,56.310417,2, 1.995614,2.411965,-0.263210, -0.192828,2.128834,0.013583, -0.155158,-0.813778,0.009718,0.559998, 1.365281,-12.416133,-1.092046, 12.235910,21.059023,-5.936839, 24.691538,79.822220,-11.084340
4.563072,1010.998291,56.310417,2, 1.986043,2.230111,-0.019143, -0.242633,2.097672,-0.105736, -0.155942,-0.807666,0.009200,0.568572, 1.081593,-12.304348,-1.227420, 12.246726,20.935980,-5.949113, 24.814005,80.031578,-11.143831
4.573073,1010.998291,56.310417,2, 2.187040,2.182254,0.028714, -0.255950,1.965303,-0.182441, -0.156540,-0.801830,0.009132,0.576612, 1.067741,-12.314691,-1.453486, 12.257404,20.812820,-5.963649, 24.936592,80.239731,-11.203474
4.583073,1010.778564,56.318748,2, 2.053042,2.167897,0.464208, -0.307087,1.990072,-0.322801, -0.156923,-0.795796,0.009753,0.584799, 0.579165,-12.386041,-1.462266, 12.263196,20.688959,-5.978272, 25.059223,80.446617,-11.263257
4.593073,1010.778564,56.318748,2, 1.325624,2.038685,1.076770, -0.323333,1.889929,-0.420547, -0.157065,-0.789957,0.010888,0.592605, -0.273140,-12.266497,-0.971758, 12.260465,20.566294,-5.987989, 25.181828,80.652283,-11.323137
4.603075,1010.778564,56.318748,2, 1.938186,2.005185,0.607777, -0.316142,1.866225,-0.579017, -0.156692,-0.784108,0.012646,0.600386, 0.303138,-12.255309,-1.433782, 12.263496,20.443716,-6.002330, 25.304487,80.856758,-11.383173
4.613076,1010.778564,56.318748,2, 1.009771,1.962115,0.966700, -0.280187,1.869155,-0.637345, -0.155987,-0.778198,0.014521,0.608166, -0.329090,-12.103832,-0.644765, 12.260205,20.322666,-6.008779, 25.427101,81.060005,-11.443267
4.623076,1010.619385,56.329166,2, 0.550349,2.043471,0.746561, -0.200818,1.790319,-0.706859, -0.154742,-0.772509,0.016485,0.615641, -0.243752,-12.032710,-0.135537, 12.257768,20.202339,-6.010134, 25.549679,81.262032,-11.503368
4.633079,1010.619385,56.329166,2, 0.124427,2.038685,0.507278, -0.085761,1.922156,-0.772378, -0.152845,-0.766419,0.018245,0.623625, -0.128549,-11.882581,0.316774, 12.256482,20.083477,-6.006965, 25.672281,81.462929,-11.563456
4.643079,1010.619385,56.329166,2, -0.100499,1.909472,0.847059, -0.033292,1.991137,-0.783564, -0.150703,-0.760070,0.019829,0.631815, -0.532733,-11.777900,0.448897, 12.251155,19.965698,-6.002476, 25.794792,81.662582,-11.623481
4.653079,1010.619385,56.329166,2, -0.315853,2.076970,0.081356, 0.035423,2.112054,-0.737488, -0.148438,-0.753304,0.020927,0.640361, 0.193831,-11.735635,0.811871, 12.253093,19.848341,-5.994358, 25.917322,81.861069,-11.683424
4.663081,1010.509033,56.339584,2, -0.607777,2.388037,0.626920, 0.111329,2.188760,-0.648798, -0.146160,-0.746260,0.021388,0.649058, -0.329518,-12.074461,1.100298, 12.249797,19.727571,-5.983352, 26.039845,82.058380,-11.743270
4.673081,1010.509033,56.339584,2, -0.669990,2.579463,0.334995, 0.143289,2.305681,-0.490593, -0.144270,-0.738778,0.021067,0.657989, -0.007542,-12.189863,1.237695, 12.249722,19.605673,-5.970975, 26.162342,82.254440,-11.802979
4.683081,1010.509033,56.339584,2, -0.612563,2.450250,0.435494, 0.140093,2.358683,-0.395777, -0.142689,-0.731025,0.020365,0.666955, -0.100866,-12.098637,1.141171, 12.248713,19.484686,-5.959564, 26.284830,82.449287,-11.862576
4.693084,1010.509033,56.339584,2, -0.387637,2.440679,0.492921, 0.174717,2.411417,-0.235708, -0.141499,-0.723028,0.018922,0.675908, -0.117525,-12.150697,0.915832, 12.247537,19.363142,-5.950403, 26.407343,82.642975,-11.922097
4.703084,1010.352539,56.356251,2, -0.832702,2.335395,0.789631, 0.164064,2.409819,-0.090022, -0.140819,-0.714939,0.016987,0.684650, -0.434777,-12.007267,1.317721, 12.243189,19.243069,-5.937225, 26.529776,82.835403,-11.981469
4.713084,1010.352539,56.356251,2, -0.401994,2.110470,0.344566, 0.185104,2.470012,-0.031428, -0.140249,-0.706556,0.014725,0.693464, 0.012337,-11.807225,0.854028, 12.243312,19.124996,-5.928685, 26.652208,83.026657,-12.040756
4.723084,1010.352539,56.356251,2, -0.531207,2.416751,0.234497, 0.205612,2.464685,0.062856, -0.139911,-0.698105,0.012061,0.702089, 0.196080,-12.055964,1.037825, 12.245273,19.004436,-5.918307, 26.774660,83.216698,-12.099939
4.733084,1010.352539,56.356251,2, -0.837488,2.115255,0.167498, 0.197090,2.512626,0.137696, -0.139847,-0.689376,0.009130,0.710719, 0.238010,-11.691270,1.262088, 12.247653,18.887524,-5.905686, 26.897137,83.405571,-12.158997
4.743084,1010.288574,56.377083,2, -0.732204,2.445465,0.052642, 0.193361,2.489721,0.194160, -0.139973,-0.680619,0.006032,0.719118, 0.445747,-12.011622,1.206542, 12.252110,18.767408,-5.893620, 27.019657,83.593246,-12.217933
4.753084,1010.288574,56.377083,2, -0.559920,2.392823,0.507278, 0.180843,2.533134,0.234643, -0.140266,-0.671589,0.002810,0.727521, 0.016027,-12.081741,1.056977, 12.252271,18.646591,-5.883051, 27.142179,83.779709,-12.276763
4.763086,1010.288574,56.377083,2, -0.267996,2.622534,0.363709, 0.125978,2.515023,0.314278, -0.141011,-0.662477,-0.000469,0.735690, 0.213377,-12.337008,0.793896, 12.254405,18.523197,-5.875110, 27.264748,83.964981,-12.335526
4.773086,1010.288574,56.377083,2, -0.378066,2.474179,0.248854, 0.071911,2.576014,0.381129, -0.142156,-0.652996,-0.003812,0.743892, 0.334473,-12.149645,0.849643, 12.257750,18.401701,-5.866614, 27.387325,84.148994,-12.394192
4.783086,1010.288574,56.377083,2, 0.148355,1.818545,-0.100499, 0.102007,2.465750,0.422411, -0.143336,-0.643838,-0.007322,0.751582, 0.486753,-11.560536,0.154576, 12.262617,18.286095,-5.865068, 27.509951,84.331856,-12.452843
4.793087,1010.146729,56.391666,2, 0.421137,1.890330,-0.344566, 0.127309,2.540325,0.445582, -0.144496,-0.634312,-0.011055,0.759373, 0.707530,-11.634498,-0.159481, 12.269693,18.169739,-5.866663, 27.632660,84.513573,-12.511516
4.803089,1010.146729,56.391666,2, 0.210568,2.129612,-0.095713, 0.105736,2.584270,0.447979, -0.145707,-0.624495,-0.014745,0.767176, 0.569239,-11.867877,0.115695, 12.275387,18.051037,-5.865506, 27.755438,84.694122,-12.570183
4.813089,1010.146729,56.391666,2, 0.440279,1.933401,0.612563, 0.055398,2.569089,0.408828, -0.146900,-0.614598,-0.018104,0.774831, -0.185668,-11.872915,0.022593, 12.273530,17.932308,-5.865280, 27.878174,84.873444,-12.628836
4.823089,1010.146729,56.391666,2, 0.129212,2.105684,0.961915, 0.004261,2.440715,0.406164, -0.148228,-0.605062,-0.021160,0.781973, -0.391076,-12.048290,0.441682, 12.269619,17.811825,-5.860863, 28.000870,85.051559,-12.687445
4.833089,1010.062256,56.412498,2, 0.330210,1.861616,0.689133, -0.037554,2.367472,0.375802, -0.149550,-0.595695,-0.023903,0.788804, -0.231562,-11.799494,0.148070, 12.267303,17.693830,-5.859382, 28.123543,85.228500,-12.746038
4.843090,1010.062256,56.412498,2, -0.114855,1.550549,1.368695, -0.052202,2.177307,0.320670, -0.150701,-0.586993,-0.026279,0.795009, -0.816739,-11.559343,0.741252, 12.259135,17.578226,-5.851969, 28.246147,85.404297,-12.804564
4.853090,1010.062256,56.412498,2, 1.210768,1.507478,0.698704, -0.023704,2.167453,0.241568, -0.151437,-0.578293,-0.028525,0.801144, -0.571277,-11.650038,-0.706971, 12.253423,17.461725,-5.859038, 28.368681,85.578911,-12.863153
4.863090,1010.062256,56.412498,2, 0.665205,1.598405,0.942772, 0.018377,2.142417,0.230115, -0.151991,-0.569659,-0.030885,0.807115, -0.612412,-11.677565,-0.091746, 12.247298,17.344950,-5.859956, 28.491154,85.752357,-12.921753
4.873091,1010.005127,56.429169,2, 1.004985,1.402194,1.062413, 0.071911,2.107527,0.186702, -0.152206,-0.561147,-0.033307,0.812920, -0.884610,-11.590258,-0.372502, 12.238451,17.229036,-5.863681, 28.613550,85.924667,-12.980395
4.883091,1010.005127,56.429169,2, 0.492921,1.263410,1.249053, 0.126244,2.078229,0.129973, -0.152026,-0.552744,-0.035764,0.818587, -0.921264,-11.394030,0.169556, 12.229239,17.115095,-5.861986, 28.735842,86.095818,-13.039015
4.893091,1010.005127,56.429169,2, 0.937986,1.435694,1.143769, 0.161667,2.028691,0.056996, -0.151442,-0.544525,-0.038124,0.824079, -0.934049,-11.627351,-0.243890, 12.219898,16.998821,-5.864425, 28.858040,86.265808,-13.097659
4.903094,1010.005127,56.429169,2, 0.607777,1.105484,1.354338, 0.205612,2.024163,0.017312, -0.150559,-0.536306,-0.040550,0.829496, -1.094851,-11.292928,0.126785, 12.208946,16.885859,-5.863156, 28.980165,86.434715,-13.156308
4.913094,1009.864258,56.454166,2, 0.636491,1.296910,1.153340, 0.243699,1.990871,-0.017845, -0.149420,-0.528210,-0.043009,0.834757, -0.872702,-11.434932,0.047620, 12.200219,16.771509,-5.862680, 29.102167,86.602432,-13.214935
4.923096,1009.864258,56.454166,2, 0.291924,1.320838,1.225125, 0.266870,1.992735,-0.048473, -0.148077,-0.520074,-0.045482,0.839957, -0.784016,-11.404561,0.400859, 12.192377,16.657440,-5.858671, 29.224115,86.769043,-13.273534
4.933096,1009.864258,56.454166,2, 0.401994,1.397408,1.177269, 0.315876,1.978619,-0.077770, -0.146472,-0.511990,-0.048069,0.845046, -0.761407,-11.488933,0.297178, 12.184763,16.542551,-5.855699, 29.345963,86.934471,-13.332090
4.943096,1009.864258,56.454166,2, 0.406780,1.426122,1.115055, 0.362219,2.016439,-0.065785, -0.144774,-0.503724,-0.050905,0.850125, -0.697678,-11.503362,0.273598, 12.177786,16.427517,-5.852963, 29.467741,87.098747,-13.390620
4.953096,1009.864258,56.477081,2, 0.181855,1.244268,1.148555, 0.409627,2.038279,-0.072710, -0.142907,-0.495348,-0.053936,0.855161, -0.669933,-11.295500,0.482740, 12.171086,16.314562,-5.848135, 29.589453,87.261894,-13.449101
4.963096,1009.723877,56.477081,2, 0.191426,1.244268,0.512064, 0.483402,2.043073,-0.056463, -0.140909,-0.486946,-0.057320,0.860084, -0.142638,-11.149155,0.150493, 12.169660,16.203070,-5.846631, 29.711149,87.423927,-13.507567
4.973096,1009.723877,56.477081,2, -0.095713,1.536192,0.655633, 0.526282,2.066777,-0.043413, -0.138841,-0.478414,-0.060930,0.864946, -0.024781,-11.410357,0.473635, 12.169412,16.088966,-5.841894, 29.832844,87.584816,-13.565987
4.983615,1009.723877,56.477081,2, -0.210568,1.617548,0.291924, 0.569962,2.114451,-0.022639, -0.136617,-0.469186,-0.065006,0.870043, 0.360054,-11.382730,0.360980, 12.173199,15.969232,-5.838097, 29.960894,87.752800,-13.627398
4.993617,1009.723877,56.477081,2, -0.344566,1.464407,-0.186640, 0.612043,2.159729,0.000000, -0.134470,-0.460178,-0.069140,0.874857, 0.770718,-11.098625,0.182114, 12.180907,15.858223,-5.836276, 30.082727,87.911415,-13.685772
5.003620,1009.899658,56.500000,2, -0.435494,1.588834,-0.119641, 0.614973,2.237499,0.042880, -0.132460,-0.450756,-0.073430,0.879706, 0.811257,-11.219540,0.268575, 12.189022,15.745994,-5.833589, 30.204655,88.068924,-13.744125
5.013622,1009.899658,56.500000,2, -0.741775,1.411765,0.215354, 0.612842,2.169850,0.064720, -0.130558,-0.441563,-0.077705,0.884273, 0.686275,-11.086643,0.691860, 12.195887,15.635105,-5.826669, 30.326637,88.225304,-13.802403
5.023624,1009.899658,56.500000,2, -0.387637,1.904687,0.071785, 0.557977,2.181835,0.120384, -0.129002,-0.432204,-0.081858,0.888740, 0.747796,-11.578763,0.285247, 12.203366,15.519295,-5.823816, 30.448696,88.380531,-13.860653
5.033624,1009.899658,56.500000,2, -0.473779,1.603191,0.028714, 0.489528,2.207669,0.174185, -0.127806,-0.422611,-0.085828,0.893140, 0.750327,-11.266909,0.313479, 12.210870,15.406626,-5.820682, 30.570805,88.534599,-13.918859
5.043627,1009.796143,56.527084,2, -0.598206,1.713261,0.239282, 0.436527,2.182368,0.212271, -0.126887,-0.413024,-0.089616,0.897374, 0.719906,-11.408195,0.514857, 12.218071,15.292510,-5.815531, 30.693022,88.687569,-13.977033
5.053627,1009.796143,56.527084,2, -0.449851,1.708475,-0.090927, 0.383526,2.209268,0.243432, -0.126189,-0.403219,-0.093236,0.901553, 0.870406,-11.337292,0.164512, 12.226775,15.179137,-5.813886, 30.815290,88.839363,-14.035172
5.063629,1009.796143,56.527084,2, -0.684347,1.679761,0.382852, 0.335585,2.187961,0.280719, -0.125750,-0.393411,-0.096690,0.905576, 0.697748,-11.402357,0.633483, 12.233754,15.065091,-5.807550, 30.937653,88.990044,-14.093259
5.073629,1009.796143,56.527084,2, -0.569492,1.708475,0.287139, 0.275659,2.181302,0.308685, -0.125543,-0.383534,-0.099910,0.909483, 0.711962,-11.419944,0.462555, 12.240873,14.950891,-5.802925, 31.060061,89.139549,-14.151288
5.086793,1009.893066,56.547916,2, -0.349352,1.488336,0.119641, 0.245829,2.183965,0.375802, -0.125722,-0.370376,-0.104124,0.914426, 0.621559,-11.195560,0.185193, 12.249056,14.803514,-5.800487, 31.221308,89.334419,-14.227646
5.096793,1009.893066,56.547916,2, -0.464208,1.493121,0.382852, 0.233311,2.180769,0.391782, -0.125938,-0.360325,-0.107281,0.918040, 0.546695,-11.256098,0.435684, 12.254523,14.690952,-5.796130, 31.343853,89.481331,-14.285607
5.106793,1009.893066,56.547916,2, -0.210568,1.392623,0.277567, 0.218929,2.177840,0.438657, -0.126382,-0.350208,-0.110441,0.921513, 0.412887,-11.168475,0.184312, 12.258652,14.579268,-5.794287, 31.466440,89.627121,-14.343550
5.116793,1009.893066,56.566666,2, -0.368495,1.598405,0.440279, 0.206145,2.157598,0.485533, -0.127058,-0.340108,-0.113597,0.924813, 0.506242,-11.383979,0.371807, 12.263714,14.465427,-5.790569, 31.589077,89.771774,-14.401456
5.126795,1009.666016,56.566666,2, -0.172283,1.368695,0.464208, 0.200818,2.146412,0.502845, -0.127815,-0.330002,-0.116738,0.927974, 0.288806,-11.204812,0.280029, 12.266603,14.353357,-5.787768, 31.711767,89.915337,-14.459345
5.136795,1009.666016,56.566666,2, -0.119641,1.454836,0.636491, 0.180577,2.150141,0.510835, -0.128625,-0.319823,-0.119786,0.931032, 0.191685,-11.345797,0.358149, 12.268519,14.239900,-5.784186, 31.834452,90.057739,-14.517187
5.146795,1009.666016,56.566666,2, -0.291924,1.258625,0.445065, 0.177913,2.107793,0.506307, -0.129427,-0.309803,-0.122772,0.933916, 0.382725,-11.073903,0.336727, 12.272346,14.129161,-5.780819, 31.957174,90.199028,-14.574995
5.156797,1009.666016,56.566666,2, -0.272782,1.028914,0.564706, 0.202416,2.080360,0.516961, -0.130243,-0.299883,-0.125858,0.936626, 0.244452,-10.898698,0.445222, 12.274792,14.020152,-5.776366, 32.079948,90.339256,-14.632771
5.166798,1009.808838,56.593750,2, -0.263210,1.311267,0.392423, 0.212537,2.084355,0.508970, -0.130989,-0.289921,-0.128967,0.939232, 0.430177,-11.108443,0.247567, 12.279094,13.909057,-5.773890, 32.202751,90.478363,-14.690516
5.176798,1009.808838,56.593750,2, -0.435494,0.894916,0.234497, 0.249824,2.041209,0.477809, -0.131547,-0.280175,-0.132162,0.941664, 0.524457,-10.638694,0.277644, 12.284338,13.802670,-5.771113, 32.325596,90.616386,-14.748227
5.186798,1009.808838,56.593750,2, -0.047856,1.177269,0.373280, 0.253553,1.986077,0.499915, -0.132226,-0.270646,-0.135355,0.943900, 0.241936,-11.012625,0.114522, 12.286757,13.692543,-5.769968, 32.448463,90.753311,-14.805927
5.196800,1009.808838,56.593750,2, -0.119641,1.086341,0.157926, 0.243965,2.014309,0.507639, -0.132922,-0.260940,-0.138519,0.946074, 0.378717,-10.843172,-0.015533, 12.290545,13.584089,-5.770123, 32.571392,90.889175,-14.863640
5.206800,1009.751709,56.614582,2, -0.119641,1.316052,0.224925, 0.239437,1.965036,0.520423, -0.133703,-0.251430,-0.141629,0.948076, 0.428898,-11.075918,-0.015909, 12.294834,13.473330,-5.770283, 32.694340,91.023911,-14.921343
5.216801,1009.751709,56.614582,2, 0.291924,1.129412,0.114855, 0.227985,1.940533,0.522820, -0.134514,-0.242000,-0.144657,0.949956, 0.072207,-10.940484,-0.285859, 12.295556,13.363914,-5.773141, 32.817307,91.157562,-14.979080
5.226801,1009.751709,56.614582,2, 0.416351,1.115055,0.459422, 0.224522,1.905377,0.523619, -0.135344,-0.232710,-0.147632,0.951700, -0.177270,-11.068287,-0.054513, 12.293783,13.253232,-5.773686, 32.940243,91.290092,-15.036817
5.236801,1009.751709,56.614582,2, 0.306281,1.153340,0.287139, 0.222658,1.877678,0.527880, -0.136205,-0.223525,-0.150569,0.953318, 0.002240,-11.023091,-0.158540, 12.293805,13.143002,-5.775272, 33.063179,91.421524,-15.094569
5.246801,1009.737305,56.627083,2, 0.497707,1.177269,0.105284, 0.225854,1.841722,0.516162, -0.137020,-0.214501,-0.153469,0.954810, -0.086368,-11.018112,-0.409983, 12.292941,13.032821,-5.779372, 33.186108,91.551849,-15.152363
5.256802,1009.737305,56.627083,2, 0.564706,0.823131,0.387637, 0.233311,1.834531,0.478608, -0.137640,-0.205525,-0.156347,0.956227, -0.361710,-10.807896,-0.109879, 12.289324,12.924731,-5.780471, 33.309013,91.681107,-15.210174
5.266804,1009.737305,56.627083,2, 0.789631,0.971486,0.401994, 0.230648,1.798309,0.439190, -0.138092,-0.196732,-0.159132,0.957552, -0.514436,-10.994969,-0.224969, 12.284179,12.814759,-5.782721, 33.431881,91.809280,-15.268012
5.276804,1009.737305,56.627083,2, 0.808774,0.780060,0.258425, 0.235975,1.824144,0.401104, -0.138322,-0.187834,-0.161909,0.958839, -0.547904,-10.774321,-0.302575, 12.278700,12.707016,-5.785747, 33.554668,91.936348,-15.325870
5.286804,1009.737305,56.643749,2, 0.516850,0.689133,0.449851, 0.239704,1.827340,0.352897, -0.138304,-0.178945,-0.164646,0.960075, -0.374444,-10.702693,0.011768, 12.274956,12.599989,-5.785629, 33.677418,92.062347,-15.383726
5.296804,1009.734619,56.643749,2, 0.622134,0.674776,0.392423, 0.246362,1.773273,0.296700, -0.138042,-0.170352,-0.167314,0.961214, -0.455169,-10.691594,-0.070108, 12.270404,12.493073,-5.786330, 33.800121,92.187279,-15.441589
5.306804,1009.734619,56.643749,2, 0.540778,0.885344,-0.076570, 0.259146,1.784726,0.256483, -0.137555,-0.161731,-0.170002,0.962300, -0.188701,-10.691634,-0.512038, 12.268517,12.386157,-5.791450, 33.922806,92.311142,-15.499504
5.316804,1009.734619,56.643749,2, 0.186640,0.722632,0.086142, 0.275659,1.718142,0.200552, -0.136832,-0.153478,-0.172666,0.963280, 0.036537,-10.530066,-0.197092, 12.268882,12.280856,-5.793421, 34.045494,92.433952,-15.557438
5.326804,1009.734619,56.643749,2, -0.014357,1.024128,-0.129212, 0.286046,1.647296,0.153943, -0.135927,-0.145601,-0.175283,0.964158, 0.364047,-10.677536,-0.416698, 12.272522,12.174081,-5.797588, 34.168221,92.555695,-15.615414
5.336804,1009.833252,56.662498,2, 0.081356,1.043271,-0.311067, 0.289775,1.612672,0.112394, -0.134839,-0.137920,-0.177852,0.964969, 0.315251,-10.644174,-0.624403, 12.275675,12.067639,-5.803832, 34.290977,92.676369,-15.673452
5.346806,1009.833252,56.662498,2, -0.138784,0.890130,-0.267996, 0.283383,1.589501,0.101741, -0.133717,-0.130346,-0.180355,0.965713, 0.455388,-10.474377,-0.478863, 12.280230,11.962874,-5.808622, 34.413803,92.796021,-15.731550
5.356806,1009.833252,56.662498,2, 0.119641,0.981057,-0.425922, 0.253287,1.606280,0.079369, -0.132482,-0.122683,-0.182698,0.966447, 0.263744,-10.548147,-0.733386, 12.282867,11.857393,-5.815956, 34.536633,92.914597,-15.789710
5.366806,1009.833252,56.662498,2, -0.229711,0.904487,-0.220140, 0.217331,1.604948,0.061258, -0.131174,-0.115012,-0.184843,0.967160, 0.521984,-10.483683,-0.433134, 12.288087,11.752557,-5.820287, 34.659512,93.032120,-15.847913
5.376806,1009.738525,56.674999,2, -0.066999,0.966700,-0.387637, 0.167526,1.540761,0.064187, -0.129960,-0.107608,-0.186695,0.967820, 0.407137,-10.507571,-0.656734, 12.292158,11.647481,-5.826854, 34.782433,93.148598,-15.906181
5.386806,1009.738525,56.674999,2, -0.119641,0.947558,-0.425922, 0.126244,1.581511,0.069514, -0.128749,-0.099969,-0.188365,0.968478, 0.447087,-10.463209,-0.679544, 12.296629,11.542849,-5.833650, 34.905399,93.264023,-15.964518
5.396806,1009.738525,56.674999,2, -0.392423,0.885344,-0.157926, 0.097479,1.497881,0.084163, -0.127693,-0.092696,-0.189838,0.969053, 0.643864,-10.453509,-0.359085, 12.303067,11.438313,-5.837241, 35.028431,93.378403,-16.022890
5.406806,1009.738525,56.674999,2, 0.019143,0.981057,-0.253639, 0.051936,1.509067,0.111329, -0.126772,-0.085309,-0.191099,0.969604, 0.284590,-10.588471,-0.577858, 12.305913,11.332429,-5.843019, 35.151489,93.491730,-16.081320
5.416806,1009.756592,56.687500,2, -0.253639,0.971486,0.129212, -0.005859,1.508002,0.147018, -0.126043,-0.077852,-0.192084,0.970132, 0.495883,-10.671180,-0.174295, 12.310872,11.225718,-5.844762, 35.274597,93.603989,-16.139767
5.426806,1009.756592,56.687500,2, 0.019143,0.866202,-0.507278, -0.042348,1.547419,0.163265, -0.125361,-0.070160,-0.192912,0.970643, 0.260452,-10.385749,-0.777213, 12.313477,11.121861,-5.852534, 35.397732,93.715210,-16.198292
5.436806,1009.756592,56.687500,2, -0.162712,0.933201,-0.421137, -0.076705,1.621461,0.175516, -0.124672,-0.062071,-0.193611,0.971143, 0.435245,-10.439854,-0.695332, 12.317829,11.017462,-5.859488, 35.520908,93.825386,-16.256887
5.446806,1009.756592,56.687500,2, 0.004786,0.765703,-0.004786, -0.090821,1.647030,0.192029, -0.124034,-0.053829,-0.194249,0.971589, 0.196222,-10.489542,-0.283927, 12.319792,10.912566,-5.862327, 35.644108,93.934509,-16.315510
5.456806,1009.974365,56.706249,2, -0.339781,0.784846,0.301496, -0.096148,1.653422,0.210406, -0.123472,-0.045531,-0.194857,0.971963, 0.518140,-10.549384,0.035308, 12.324973,10.807073,-5.861974, 35.767357,94.042580,-16.374130
5.466806,1009.974365,56.706249,2, -0.258425,0.708275,0.636491, -0.112128,1.620396,0.248759, -0.123123,-0.037343,-0.195363,0.972255, 0.414176,-10.628283,0.354778, 12.329115,10.700789,-5.858426, 35.890648,94.149590,-16.432714
